,trial,start_time,rt,correct,fact_id,question,answer,flipped,alpha,activation,flip_alpha,flip_activation
0,1,58538.10979996343,6292.8555000107735,True,2,I,mimi,False,0.3,-inf,0.3,-inf
1,2,72722.33699995559,2116.627700044773,True,2,I,mimi,False,0.3,-0.7956391760074717,0.3,-inf
2,3,77202.6812999975,9946.230600005949,True,14,one,moja,False,0.3,-inf,0.3,-inf
3,4,91863.44650003592,1137.5024999724699,True,14,one,moja,False,0.3,-0.8055524674655621,0.3,-0.8055524674655616
4,5,96039.4528999459,5791.158100008033,True,15,have,na,False,0.3,-inf,0.3,-inf
5,6,105560.44969998766,4773.454700014554,True,19,hot,moto,False,0.3,-inf,0.3,-inf
6,7,113464.13979993667,4600.580000085756,True,15,have,na,False,0.3,-0.8573663964145406,0.3,-0.8573663964145406
7,8,119858.59239997806,1268.2591000339016,True,19,hot,moto,False,0.3,-0.7980388943133083,0.3,-0.7980388943133079
8,9,123401.32309996989,1579.164499999024,True,2,mimi,I,True,0.250390625,-0.7260544715598508,0.3,-inf
9,10,129856.57699999865,10284.39529996831,True,20,word,neno,False,0.3,-inf,0.3,-inf
10,11,146167.96340001747,7429.4098999816915,True,14,moja,one,True,0.349609375,-0.7467702384573284,0.3,-0.7467702384573284
11,12,155517.7101000445,34066.73979992047,False,20,word,neno,False,0.3,-0.9734932549311738,0.3,-0.9734932549311738
12,13,190700.47929999421,3351.0935000376776,True,15,have,na,False,0.349609375,-0.8520917650875376,0.349609375,14.220040595012788
13,14,196388.7557999697,1328.613099991344,True,19,hot,moto,False,0.250390625,-0.8542948374081979,0.250390625,11.120293753189408
14,15,203103.7803000072,inf,True,14,moja,one,True,0.39921875,-0.8008101083247852,0.3,-0.9724821168750434
15,16,216198.8506000489,17306.93489999976,False,20,word,neno,False,0.349609375,-0.7754113018954918,0.349609375,-0.7754113018954918
16,17,234632.12860003114,inf,True,14,one,moja,False,0.445703125,-0.7310970124175953,0.33710937499999993,-1.0529421593172443
17,18,242620.6788000418,4320.750099956058,True,15,have,na,False,0.39921875,-0.8007681898537178,0.39921874999999996,-0.8007681898537178
18,19,248787.3981000157,3367.3313999315724,True,22,what,nini,False,0.3,-inf,0.3,-inf
19,20,255088.89110002198,2581.4916000235826,True,14,moja,one,True,0.4484374999999999,-0.6537029148851761,0.33710937499999993,-0.5909963581599104
20,21,259866.62949994212,10744.685200043024,True,22,nini,what,True,0.3,-0.7215216932026071,0.3,-0.7215216932026086
21,22,272810.11439999565,4031.804800033569,True,20,word,neno,False,0.39921875,-0.7980887437387351,0.39921874999999996,-0.798088743738735
22,23,279092.2988000093,1435.2838000049815,True,15,have,na,False,0.3746093749999999,-0.7698352567301606,0.3746093749999999,-0.7698352567301606
23,24,282181.9784999825,3015.013900003396,True,26,you,ninyi,False,0.3,-inf,0.3,-inf
24,25,291241.13860004576,2392.112999921665,True,43,time,wakati,False,0.3,-inf,0.3,-inf
25,26,299693.1000000332,7865.446600015274,False,26,you,ninyi,False,0.3,-0.8588508580093162,0.3,12.37007718166522
26,27,308706.7169999937,13622.189400019124,False,43,time,wakati,False,0.3,-0.8580695986113991,0.3,-inf
27,28,323486.841200036,2748.2414999976754,True,14,one,moja,False,0.4503906249999999,-0.8723544721933331,0.33124999999999993,-0.9363737081612543
28,29,331568.79359995946,3410.075100022368,True,20,word,neno,False,0.424609375,-0.8930611668940438,0.42460937499999996,-0.8930611668940438
29,30,337358.4269999992,3767.846700036898,True,22,nini,what,True,0.349609375,-0.866695509746541,0.3,-1.3451414449662304
30,31,343325.7513999706,7300.3556000767285,True,50,tell,kuwaambia,False,0.3,-inf,0.3,-inf
31,32,364626.77119998256,3285.3171000024304,False,26,you,ninyi,False,0.349609375,-0.7986315415719203,0.349609375,-0.7986315415719201
32,33,369062.1360000223,3752.814100007527,True,50,tell,kuwaambia,False,0.3,-0.9743717201622965,0.3,-inf
33,34,377209.1340000042,2173.3153000241145,True,20,word,neno,False,0.4125,-0.8273483881735327,0.4125,-0.8273483881735322
34,35,383312.54119996453,11696.33900001645,False,43,time,wakati,False,0.349609375,-0.8413296156764682,0.3,-inf
35,36,398436.6282999981,1713.548399973661,True,14,moja,one,True,0.45,-0.8906178277100991,0.33124999999999993,-0.6889351115478232
36,37,402910.1224000333,2688.442899961956,True,22,nini,what,True,0.34921875,-0.8731953573746003,0.3,-1.5113247588263097
37,38,407884.4405999407,inf,True,15,have,na,False,0.4242187499999999,-0.8393891398165361,0.42421874999999987,-0.8393891398165361
38,39,413365.2502000332,8390.076300012879,True,26,you,ninyi,False,0.39921875,-0.7688687071674574,0.39921874999999996,-0.7688687071674574
39,40,424699.64530004654,7226.81299992837,True,50,tell,kuwaambia,False,0.349609375,-0.7503815960422321,0.3,-inf
40,41,436052.6475999504,8856.703200028278,True,43,time,wakati,False,0.39921875,-0.8017361458092758,0.3,-inf
41,42,448452.4961999849,1109.9047999596223,True,15,have,na,False,0.3746093749999999,-0.8193777157101839,0.3746093749999999,-0.8193777157101833
42,43,451296.17450002115,1651.6789000015704,True,26,you,ninyi,False,0.398828125,-0.7683920800814229,0.398828125,-0.7683920800814229
43,44,456515.08439995814,1603.3918000757694,True,14,one,moja,False,0.449609375,-0.792515367206684,0.32929687499999993,-0.8209872047047172
44,45,460839.80249997706,3100.637100054882,True,20,word,neno,False,0.437109375,-0.8067075575138138,0.437109375,16.340892577637142
45,46,466541.6682000505,1737.0808999985454,True,43,wakati,time,True,0.393359375,-0.7233317546569211,0.3,-inf
46,47,472114.394800039,1847.549299942329,True,50,kuwaambia,tell,True,0.34921875,-0.7439791343542773,0.3,-inf
47,48,476356.4141000388,6095.800699898973,False,2,mimi,I,True,0.29999999999999993,-0.8052333354338861,0.3,-1.7599022483631137
48,49,483658.734699944,2107.6516000321135,True,22,what,nini,False,0.34882812500000004,-0.761027766132227,0.3,-1.6377113581137346
49,50,488068.23129998526,2573.858399991877,True,52,set,kuweka,False,0.3,-inf,0.3,-inf
50,51,495734.3735999893,inf,True,53,three,tatu,False,0.3,-inf,0.3,-inf
51,52,506560.5912000174,2360.4169000172988,False,52,set,kuweka,False,0.3,-0.8752073005225753,0.3,-inf
52,53,510978.9040000178,3757.85429996904,True,53,three,tatu,False,0.3,-0.8172662329276501,0.3,-0.8172662329276501
53,54,517646.6458999785,1993.5364000266416,True,20,word,neno,False,0.43671875,-0.8105709956493299,0.43671875000000004,16.696199814005563
54,55,522432.52549995674,2405.649400083348,True,26,you,ninyi,False,0.3984375,-0.7907285711959601,0.3984375,15.597471504293187
55,56,527852.1114999894,4488.271499983966,True,14,moja,one,True,0.4523437499999999,-0.7781773745186257,0.32929687499999993,-0.5933884472801068
56,57,534320.6789999967,2419.958999962546,True,43,wakati,time,True,0.39453125,-0.7433821127439184,0.3,-1.2648757715388053
57,58,539335.4560999433,2928.4595000790428,True,54,want,wanataka,False,0.3,-inf,0.3,-inf
58,59,559668.6948999995,2556.045399978757,True,19,hot,moto,False,0.2515625,-0.8030287735350523,0.2515625,-0.8030287735350523
59,60,564707.4000999564,5849.570800084622,False,54,want,wanataka,False,0.3,-0.9700931989836712,0.3,-0.9700931989836713
60,61,571801.0550000472,9377.367399982177,False,52,set,kuweka,False,0.349609375,-0.7992199797837182,0.3,-inf
61,62,582416.3646999514,2326.687299995683,True,53,three,tatu,False,0.275390625,-0.8309711177835154,0.275390625,-0.8309711177835154
62,63,587380.5752999615,1599.03560008388,True,50,kuwaambia,tell,True,0.345703125,-0.8223775403021311,0.3,-1.4241732200446755
63,64,591451.9688000437,1244.7113998932766,True,2,mimi,I,True,0.250390625,-0.8105237488263147,0.250390625,-1.0372156059016813
64,65,594543.3735999977,11607.732599950396,True,20,word,neno,False,0.448828125,-0.7960543751704622,0.448828125,-0.7960543751704622
65,66,609739.3325000303,3010.44370001182,True,14,one,moja,False,0.453515625,-0.7933557937081306,0.3296874999999999,-0.7474536476666758
66,67,615059.803399956,1896.3497000513598,False,26,you,ninyi,False,0.405078125,-0.7993048205579779,0.40507812499999996,15.411641463086609
67,68,620928.1023000367,2501.425899914466,False,52,set,kuweka,False,0.39921875,-0.7704832492783075,0.3,-inf
68,69,624711.2091999734,5576.196299982257,False,54,want,wanataka,False,0.349609375,-0.7721487543985304,0.349609375,-0.7721487543985304
69,70,631552.8850000119,1494.7973999660462,True,22,what,nini,False,0.3484375000000001,-0.8072332869746538,0.250390625,-1.069646004686262
70,71,635368.0483000353,2825.865399907343,True,43,wakati,time,True,0.394921875,-0.798483053723331,0.250390625,-0.9276977472881547
71,72,641676.6219999408,2554.592600092292,True,15,have,na,False,0.3812499999999999,-0.7855721146333063,0.38124999999999987,-0.7855721146333063
72,73,646309.6365999663,1668.9831999829041,True,55,air,hewa,False,0.3,-inf,0.3,-inf
73,74,651084.5446999883,11320.019699982367,False,52,kuweka,set,True,0.4371093749999999,-0.7083338537066034,0.3,-inf
