,trial,start_time,rt,correct,fact_id,question,answer,flipped,alpha,activation,flip_alpha,flip_activation
0,1,26081.974199973047,2490.098599810153,True,2,I,mimi,False,0.3,-inf,0.3,-inf
1,2,31410.522499587387,inf,False,2,mimi,I,True,0.3,-0.501923651109026,0.3,-0.501923651109026
2,3,42011.76499994472,inf,True,14,one,moja,False,0.3,-inf,0.3,-inf
3,4,50822.03729962929,814.8841001093386,True,14,moja,one,True,0.3,-0.6527755042481002,0.3,-inf
4,5,53505.80709986389,1349.7096998617053,True,15,have,na,False,0.3,-inf,0.3,-inf
5,6,56566.33689999581,1917.293899692595,True,19,hot,moto,False,0.3,-inf,0.3,-inf
6,7,61542.31509985402,1462.8161997534335,True,15,na,have,True,0.3,-0.6251983981450672,0.3,-inf
7,8,64978.83479995652,2761.1459996551275,True,19,moto,hot,True,0.3,-0.6389155336012853,0.3,-inf
8,9,69607.91380004957,2479.1077999398112,True,20,word,neno,False,0.3,-inf,0.3,-inf
9,10,74182.20169981943,inf,True,2,mimi,I,True,0.349609375,-0.7003127275944797,0.3,-1.1619860720481199
10,11,79409.96589977294,2434.7995999269187,True,20,neno,word,True,0.3,-0.6847775285060387,0.3,-0.6847775285060387
11,12,83932.26419994608,1288.6332999914885,True,22,what,nini,False,0.3,-inf,0.3,-inf
12,13,87329.3685996905,1686.5225001238284,True,26,you,ninyi,False,0.3,-inf,0.3,-inf
13,14,94055.76279992238,7340.101500041784,False,22,nini,what,True,0.3,-0.6944577946724972,0.3,-inf
14,15,102678.19669982418,1367.4349999055264,False,26,you,ninyi,False,0.3,-0.8193117377551782,0.3,-0.8193117377551782
15,16,107836.96859981863,5982.167399954052,False,14,moja,one,True,0.349609375,-0.7756209375522133,0.3,-1.212993955849755
16,17,115994.63939992712,5506.674699950963,True,15,na,have,True,0.349609375,-0.7639599117856217,0.3,11.959334966462857
17,18,123657.12390001865,1396.9607995823026,True,19,moto,hot,True,0.250390625,-0.7866722898548684,0.3,11.90609548975585
18,19,127212.29799976572,1338.5250000283122,True,2,I,mimi,False,0.34921875,-0.7913004526227653,0.3,-1.384923005917903
19,20,130815.60429977252,4856.915799900889,True,20,neno,word,True,0.349609375,-0.7387901801077922,0.3,-1.2342818530151045
20,21,137475.18449975178,2390.280399937183,True,43,time,wakati,False,0.3,-inf,0.3,-inf
21,22,146859.54039962962,2873.968800064177,False,22,nini,what,True,0.349609375,-0.7464393265368577,0.3,-1.1899748200805889
22,23,151975.38999980316,1356.9244001992047,True,43,time,wakati,False,0.3,-0.8022488465230312,0.3,-0.8022488465230312
23,24,156053.34459990266,7125.472799874842,False,14,one,moja,False,0.39921875,-0.7697114680026856,0.3,-0.7303017414300267
24,25,165694.73769981414,1899.9625002034009,True,26,you,ninyi,False,0.250390625,-0.7918341057034086,0.250390625,-0.7918341057034086
25,26,174235.87489966306,5509.998300112785,False,15,na,have,True,0.39921875,-0.8222413450032651,0.32539062499999993,13.72461766772518
26,27,183080.47469984737,2731.304099783301,True,20,word,neno,False,0.375,-0.7818531601293287,0.3,-1.41946831605222
27,28,187554.94219996035,2892.2023996710773,False,14,moja,one,True,0.4488281249999999,-0.7229481428554493,0.32539062499999993,-0.8607095194349395
28,29,192463.61600002274,2974.2231997661293,False,22,what,nini,False,0.39921875,-0.7447550684857823,0.3,-0.7130427165934693
29,30,198284.14409980175,3143.96349992603,True,50,tell,kuwaambia,False,0.3,-inf,0.3,-inf
30,31,208572.06419995052,3640.037399716675,False,15,have,na,False,0.436328125,-0.7645837189686958,0.32539062499999993,-0.560777924744612
31,32,215074.14039969444,1643.5572002083065,False,50,tell,kuwaambia,False,0.3,-0.8462349752141294,0.3,-inf
32,33,220954.7309000045,3123.838099651038,False,14,one,moja,False,0.4585937499999999,-0.8026385431665484,0.32539062499999993,-0.5808955091411416
33,34,231873.03809961304,inf,False,43,time,wakati,False,0.349609375,-0.86747782423083,0.349609375,-0.86747782423083
34,35,244249.6084999293,3259.1737001203005,False,22,what,nini,False,0.4488281249999999,-0.851045088003283,0.3,-0.9136287942912651
35,36,250519.8266999796,inf,True,2,I,mimi,False,0.398828125,-0.8851591902137695,0.300390625,-0.989911273328922
36,37,258087.08459977058,2624.256200157106,False,15,have,na,False,0.4445312499999999,-0.8755396019153497,0.32539062499999993,-0.7791554184275354
37,38,262615.09869992733,2049.4140996597707,False,20,word,neno,False,0.424609375,-0.8689010600117238,0.300390625,-0.8849842651324046
38,39,266904.603399802,inf,False,14,moja,one,True,0.4621093749999999,-0.8235490013806127,0.3749999999999999,-0.7820317983012398
39,40,282352.9755999334,3059.394999872893,False,22,nini,what,True,0.4828124999999999,-0.8806697554654641,0.33710937499999993,-1.0061758994749257
40,41,288420.3148996457,2695.561800152064,False,50,tell,kuwaambia,False,0.349609375,-0.8369191421621865,0.3,-inf
41,42,292956.31369994953,2674.097300041467,True,43,time,wakati,False,0.35625,-0.8502419999083733,0.35624999999999996,-0.8502419999083733
42,43,298734.5122997649,1040.2734000235796,True,2,mimi,I,True,0.3984375,-0.8519109133875524,0.300390625,-0.5837325234233803
43,44,301457.680599764,1768.4828001074493,False,20,neno,word,True,0.428125,-0.8405915108215266,0.300390625,-0.5079840530038825
44,45,305543.2614996098,2736.20880022645,True,22,what,nini,False,0.4855468749999998,-0.7664835431837581,0.33710937499999993,-0.6019780485004939
45,46,310392.72530004376,1589.0927999280393,True,15,na,have,True,0.444140625,-0.8382787958146589,0.3124999999999999,-0.9112955131301528
46,47,314571.16279983893,2975.977499969304,False,14,moja,one,True,0.51171875,-0.7894005224569808,0.38789062499999993,-0.7698846841642643
47,48,319327.7278998867,4315.224700141698,True,52,set,kuweka,False,0.3,-inf,0.3,9.142427825406083
48,49,328335.03940002987,inf,True,14,one,moja,False,0.5511718750000001,-0.6443107214617101,0.38789062499999993,-0.3919606739380202
49,50,336064.4383998588,1548.1520001776514,False,52,set,kuweka,False,0.3,-0.8452813621120822,0.3,-0.8452813621120822
50,51,342411.2062999048,inf,False,22,nini,what,True,0.4921874999999998,-0.7734308229189859,0.34765625,13.96068651599783
51,52,348139.5020997152,5291.594600304961,False,14,moja,one,True,0.5570312500000001,-0.7464166328686342,0.3882812499999999,-0.5961392375675452
52,53,356431.8931996823,5555.291800294071,False,50,tell,kuwaambia,False,0.39921875,-0.8692357673869539,0.3,-inf
53,54,363194.9995998293,2237.408199813217,True,20,neno,word,True,0.426171875,-0.8272323180120764,0.300390625,-0.7124028132545797
54,55,369630.5885999464,1597.2790000960229,False,14,one,moja,False,0.5589843750000001,-0.7118292133261154,0.3882812499999999,-0.3733345265656287
55,56,374722.02109964564,4490.118400193751,False,15,have,na,False,0.4937499999999999,-0.8178310988604978,0.3124999999999999,-0.5713543921064572
56,57,381099.66029971844,1158.8023002259433,True,2,I,mimi,False,0.34882812500000004,-0.8213095185024909,0.25078125000000007,11.090464482340431
57,58,384211.2890998833,2329.9127998761833,False,22,what,nini,False,0.5292968749999999,-0.7862081925016913,0.34765625,-0.5978893131199225
58,59,390006.571599748,1792.2193999402225,True,43,time,wakati,False,0.349609375,-0.8360880317694763,0.349609375,-0.8360880317694763
59,60,395241.96380004287,1555.194899905473,False,50,tell,kuwaambia,False,0.4308593749999999,-0.809711736817192,0.3,-inf
60,61,401122.7859999053,inf,True,15,na,have,True,0.5167968749999999,-0.8038385187253669,0.31289062499999987,-0.6400420926092679
61,62,405918.0029998533,inf,False,14,moja,one,True,0.6085937500000002,-0.8191052887887047,0.42617187499999987,-0.6002615693722827
62,63,412816.4286999963,2023.6005997285247,False,22,nini,what,True,0.57890625,-0.8212114950995295,0.348046875,-0.7155834537457534
63,64,416819.7424998507,1541.5063998661935,True,14,one,moja,False,0.6082031250000002,-0.694840346134236,0.42617187499999987,-0.3658342231035829
64,65,420262.8322998062,1849.098099861294,False,52,set,kuweka,False,0.349609375,-0.8799211746977172,0.349609375,-0.8799211746977172
65,66,424209.07459966844,2698.2044000178576,True,22,what,nini,False,0.5917968749999999,-0.685962613456164,0.348046875,-0.23642198232315373
66,67,429323.1092998758,4160.121900029481,True,15,have,na,False,0.52890625,-0.7904753705754024,0.31289062499999987,-0.3237047449554648
67,68,435876.0301000439,2960.348799824715,True,14,moja,one,True,0.6578125000000002,-0.7233373716633326,0.4757812499999998,18.701913078244914
68,69,440802.38100001594,1533.5694998502731,False,50,tell,kuwaambia,False,0.4312499999999999,-0.8355569463445834,0.3,-inf
69,70,445281.45190002397,2660.054599866271,True,14,one,moja,False,0.6683593750000003,-0.6624788395661446,0.4757812499999998,-0.4159173449023399
70,71,450014.5292999223,2573.799499776215,True,22,nini,what,True,0.5906249999999998,-0.8467969018308422,0.34843749999999996,-0.47324950365084645
71,72,454679.5999999158,1136.200999841094,False,14,moja,one,True,0.6687500000000003,-0.5819153402968844,0.5183593749999998,-0.5974532775906064
72,73,457934.10889990634,3051.7651997506623,True,20,word,neno,False,0.45078125,-0.8616260149565962,0.32421875,13.06194315423726
73,74,463104.42369990045,1019.9921997264028,True,15,na,have,True,0.528515625,-0.8087509068414686,0.3124999999999999,-0.4626259325600256
74,75,466185.46559987596,1173.2346997596326,True,14,one,moja,False,0.6683593750000003,-0.5821631002761992,0.5183593749999998,-0.5097332680075309
75,76,469568.3917999268,1630.1902998238804,True,22,what,nini,False,0.5902343749999999,-0.7305555198704708,0.34843749999999996,-0.2306958337586611
76,77,473399.43839982146,1522.675400134176,True,52,set,kuweka,False,0.34921875,-0.8154153075359806,0.34921875,-0.8154153075359803
77,78,479280.88909992954,1042.1747998334467,True,14,moja,one,True,0.6679687500000003,-0.5938516263057155,0.5179687499999999,19.45997890758278
78,79,483227.5455999188,inf,False,19,moto,hot,True,0.29999999999999993,-0.8296003643484758,0.287109375,-1.2930947603332852
79,80,499163.4863000363,2777.78339991346,True,22,nini,what,True,0.6148437499999999,-0.7905150633227734,0.3980468749999999,-0.41315489902504754
80,81,504234.4964998774,1146.6620001010597,True,14,one,moja,False,0.6183593750000003,-0.7878238792365326,0.5179687499999999,-0.6535404731725628
81,82,507785.3838000447,1110.0003998726606,True,15,have,na,False,0.5281250000000001,-0.8301364343507103,0.3124999999999999,-0.3054773716245135
82,83,510802.50569991773,1614.0002999454737,False,50,tell,kuwaambia,False,0.4316406249999999,-0.8464004425154434,0.3,-inf
83,84,519211.26300003385,1672.83169971779,True,22,what,nini,False,0.586328125,-0.7880208253813265,0.3980468749999999,-0.4160100323853193
84,85,523353.7204000168,1439.5355000160635,True,20,neno,word,True,0.450390625,-0.8826920340636265,0.32421875,-0.6868376177551866
85,86,527188.7570996769,2030.9795001521707,True,43,time,wakati,False,0.30625,-0.7935644714249966,0.30625,-0.7935644714249966
86,87,532618.6089999974,1457.1054000407455,True,26,you,ninyi,False,0.21875,-0.8067999926122269,0.21874999999999997,-0.8067999926122269
87,88,542028.5508995876,1036.5456002764404,True,15,na,have,True,0.4785156250000001,-0.7422648230468762,0.26289062499999993,-0.4070051453253357
88,89,545408.8172996417,1332.0165001787245,True,14,moja,one,True,0.5687500000000002,-0.750766357688144,0.5089843749999999,-0.9397316249759774
89,90,548933.4128997289,1718.1688002310693,True,22,nini,what,True,0.5367187499999999,-0.7066378179548033,0.39765624999999993,-0.6088684762543528
90,91,553278.766699601,2690.5739000067115,True,53,three,tatu,False,0.3,-inf,0.3,-inf
91,92,559594.0211997367,1464.0196999534965,True,52,set,kuweka,False,0.348046875,-0.7598307392882477,0.348046875,-0.7598307392882477
92,93,564265.258600004,1270.4889997839928,True,53,tatu,three,True,0.3,-0.7189999527369398,0.3,-inf
93,94,567887.0182000101,1549.9325999990106,False,50,tell,kuwaambia,False,0.4812499999999998,-0.7511380437164545,0.3,-inf
94,95,576354.1162996553,1837.685200385749,True,20,word,neno,False,0.4007812500000001,-0.7567630678798903,0.27460937500000004,-0.8027441341696755
95,96,580680.5465999059,1249.5005996897814,True,19,moto,hot,True,0.299609375,-0.7916771351362497,0.23750000000000002,-0.7501519429822087
96,97,584249.1954998113,3146.865599788725,True,54,want,wanataka,False,0.3,-inf,0.3,-inf
97,98,593742.6900998689,inf,True,50,kuwaambia,tell,True,0.5183593749999998,-0.7482592539644878,0.3,-inf
98,99,600664.3289998174,2698.1167001649733,True,54,want,wanataka,False,0.3,-0.8394611051178643,0.3,-0.8394611051178643
99,100,607524.3320995942,1632.3217004537582,True,50,kuwaambia,tell,True,0.5179687499999999,-0.6098129033973294,0.3,-0.7870012250001278
100,101,612317.9825996049,1078.1085002236068,True,53,tatu,three,True,0.250390625,-0.7144117674832008,0.3,-1.1616896474244163
101,102,615730.5407999082,1357.9525998793542,True,55,air,hewa,False,0.3,-inf,0.3,-inf
102,103,620212.172599975,1607.989099808037,True,58,play,kucheza,False,0.3,-inf,0.3,-inf
