,trial,start_time,rt,correct,fact_id,question,answer,flipped,alpha,activation,flip_alpha,flip_activation
0,1,27754.898800048973,3688.6990000493824,True,2,I,mimi,False,0.3,-inf,0.3,-inf

,trial,start_time,rt,correct,fact_id,question,answer,flipped,alpha,activation,flip_alpha,flip_activation
0,1,27754.898800048973,3688.6990000493824,True,2,I,mimi,False,0.3,-inf,0.3,-inf
1,2,34128.570300061256,inf,True,2,mimi,I,True,0.3,-0.5556527031518672,0.3,-inf

,trial,start_time,rt,correct,fact_id,question,answer,flipped,alpha,activation,flip_alpha,flip_activation
0,1,27754.898800048973,3688.6990000493824,True,2,I,mimi,False,0.3,-inf,0.3,-inf
1,2,34128.570300061256,inf,True,2,mimi,I,True,0.3,-0.5556527031518672,0.3,-inf
2,3,51978.97659987211,2997.8038002736866,False,14,one,moja,False,0.3,-inf,0.3,-inf

,trial,start_time,rt,correct,fact_id,question,answer,flipped,alpha,activation,flip_alpha,flip_activation
0,1,27754.898800048973,3688.6990000493824,True,2,I,mimi,False,0.3,-inf,0.3,-inf
1,2,34128.570300061256,inf,True,2,mimi,I,True,0.3,-0.5556527031518672,0.3,-inf
2,3,51978.97659987211,2997.8038002736866,False,14,one,moja,False,0.3,-inf,0.3,-inf
3,4,56095.7563999109,inf,True,14,moja,one,True,0.3,-0.4245213767457171,0.3,-inf

,trial,start_time,rt,correct,fact_id,question,answer,flipped,alpha,activation,flip_alpha,flip_activation
0,1,27754.898800048973,3688.6990000493824,True,2,I,mimi,False,0.3,-inf,0.3,-inf
1,2,34128.570300061256,inf,True,2,mimi,I,True,0.3,-0.5556527031518672,0.3,-inf
2,3,51978.97659987211,2997.8038002736866,False,14,one,moja,False,0.3,-inf,0.3,-inf
3,4,56095.7563999109,inf,True,14,moja,one,True,0.3,-0.4245213767457171,0.3,-inf
4,5,59356.10380023718,1899.6688998304305,True,15,have,na,False,0.3,-inf,0.3,-inf

,trial,start_time,rt,correct,fact_id,question,answer,flipped,alpha,activation,flip_alpha,flip_activation
0,1,27754.898800048973,3688.6990000493824,True,2,I,mimi,False,0.3,-inf,0.3,-inf
1,2,34128.570300061256,inf,True,2,mimi,I,True,0.3,-0.5556527031518672,0.3,-inf
2,3,51978.97659987211,2997.8038002736866,False,14,one,moja,False,0.3,-inf,0.3,-inf
3,4,56095.7563999109,inf,True,14,moja,one,True,0.3,-0.4245213767457171,0.3,-inf
4,5,59356.10380023718,1899.6688998304305,True,15,have,na,False,0.3,-inf,0.3,-inf
5,6,63043.70969999582,1956.051399931312,True,19,hot,moto,False,0.3,-inf,0.3,9.766260287910034

,trial,start_time,rt,correct,fact_id,question,answer,flipped,alpha,activation,flip_alpha,flip_activation
0,1,27754.898800048973,3688.6990000493824,True,2,I,mimi,False,0.3,-inf,0.3,-inf
1,2,34128.570300061256,inf,True,2,mimi,I,True,0.3,-0.5556527031518672,0.3,-inf
2,3,51978.97659987211,2997.8038002736866,False,14,one,moja,False,0.3,-inf,0.3,-inf
3,4,56095.7563999109,inf,True,14,moja,one,True,0.3,-0.4245213767457171,0.3,-inf
4,5,59356.10380023718,1899.6688998304305,True,15,have,na,False,0.3,-inf,0.3,-inf
5,6,63043.70969999582,1956.051399931312,True,19,hot,moto,False,0.3,-inf,0.3,9.766260287910034
6,7,67742.49020032585,1758.5878996178506,True,15,na,have,True,0.3,-0.6379829173476895,0.3,-inf

,trial,start_time,rt,correct,fact_id,question,answer,flipped,alpha,activation,flip_alpha,flip_activation
0,1,27754.898800048973,3688.6990000493824,True,2,I,mimi,False,0.3,-inf,0.3,-inf
1,2,34128.570300061256,inf,True,2,mimi,I,True,0.3,-0.5556527031518672,0.3,-inf
2,3,51978.97659987211,2997.8038002736866,False,14,one,moja,False,0.3,-inf,0.3,-inf
3,4,56095.7563999109,inf,True,14,moja,one,True,0.3,-0.4245213767457171,0.3,-inf
4,5,59356.10380023718,1899.6688998304305,True,15,have,na,False,0.3,-inf,0.3,-inf
5,6,63043.70969999582,1956.051399931312,True,19,hot,moto,False,0.3,-inf,0.3,-inf
6,7,67742.49020032585,1758.5878996178506,True,15,na,have,True,0.3,-0.6379829173476895,0.3,-inf
7,8,71052.09959996863,748.4464999288319,True,19,moto,hot,True,0.3,-0.6241469188906361,0.3,-inf

,trial,start_time,rt,correct,fact_id,question,answer,flipped,alpha,activation,flip_alpha,flip_activation
0,1,27754.898800048973,3688.6990000493824,True,2,I,mimi,False,0.3,-inf,0.3,-inf
1,2,34128.570300061256,inf,True,2,mimi,I,True,0.3,-0.5556527031518672,0.3,-inf
2,3,51978.97659987211,2997.8038002736866,False,14,one,moja,False,0.3,-inf,0.3,-inf
3,4,56095.7563999109,inf,True,14,moja,one,True,0.3,-0.4245213767457171,0.3,-inf
4,5,59356.10380023718,1899.6688998304305,True,15,have,na,False,0.3,-inf,0.3,-inf
5,6,63043.70969999582,1956.051399931312,True,19,hot,moto,False,0.3,-inf,0.3,-inf
6,7,67742.49020032585,1758.5878996178506,True,15,na,have,True,0.3,-0.6379829173476895,0.3,-inf
7,8,71052.09959996863,748.4464999288319,True,19,moto,hot,True,0.3,-0.6241469188906361,0.3,-inf
8,9,73355.4060999304,1833.4256000816824,True,20,word,neno,False,0.3,-inf,0.3,-inf

,trial,start_time,rt,correct,fact_id,question,answer,flipped,alpha,activation,flip_alpha,flip_activation
0,1,27754.898800048973,3688.6990000493824,True,2,I,mimi,False,0.3,-inf,0.3,-inf
1,2,34128.570300061256,inf,True,2,mimi,I,True,0.3,-0.5556527031518672,0.3,-inf
2,3,51978.97659987211,2997.8038002736866,False,14,one,moja,False,0.3,-inf,0.3,-inf
3,4,56095.7563999109,inf,True,14,moja,one,True,0.3,-0.4245213767457171,0.3,-inf
4,5,59356.10380023718,1899.6688998304305,True,15,have,na,False,0.3,-inf,0.3,-inf
5,6,63043.70969999582,1956.051399931312,True,19,hot,moto,False,0.3,-inf,0.3,-inf
6,7,67742.49020032585,1758.5878996178506,True,15,na,have,True,0.3,-0.6379829173476895,0.3,-inf
7,8,71052.09959996863,748.4464999288319,True,19,moto,hot,True,0.3,-0.6241469188906361,0.3,-inf
8,9,73355.4060999304,1833.4256000816824,True,20,word,neno,False,0.3,-inf,0.3,-inf
9,10,77491.9354999438,1326.9370999187229,True,22,what,nini,False,0.3,-inf,0.3,-inf

,trial,start_time,rt,correct,fact_id,question,answer,flipped,alpha,activation,flip_alpha,flip_activation
0,1,27754.898800048973,3688.6990000493824,True,2,I,mimi,False,0.3,-inf,0.3,-inf
1,2,34128.570300061256,inf,True,2,mimi,I,True,0.3,-0.5556527031518672,0.3,-inf
2,3,51978.97659987211,2997.8038002736866,False,14,one,moja,False,0.3,-inf,0.3,-inf
3,4,56095.7563999109,inf,True,14,moja,one,True,0.3,-0.4245213767457171,0.3,-inf
4,5,59356.10380023718,1899.6688998304305,True,15,have,na,False,0.3,-inf,0.3,-inf
5,6,63043.70969999582,1956.051399931312,True,19,hot,moto,False,0.3,-inf,0.3,-inf
6,7,67742.49020032585,1758.5878996178506,True,15,na,have,True,0.3,-0.6379829173476895,0.3,-inf
7,8,71052.09959996863,748.4464999288319,True,19,moto,hot,True,0.3,-0.6241469188906361,0.3,-inf
8,9,73355.4060999304,1833.4256000816824,True,20,word,neno,False,0.3,-inf,0.3,-inf
9,10,77491.9354999438,1326.9370999187229,True,22,what,nini,False,0.3,-inf,0.3,-inf
10,11,81836.76350023597,1631.226500030607,True,20,neno,word,True,0.3,-0.6413611523353802,0.3,-inf

,trial,start_time,rt,correct,fact_id,question,answer,flipped,alpha,activation,flip_alpha,flip_activation
0,1,27754.898800048973,3688.6990000493824,True,2,I,mimi,False,0.3,-inf,0.3,-inf
1,2,34128.570300061256,inf,True,2,mimi,I,True,0.3,-0.5556527031518672,0.3,-inf
2,3,51978.97659987211,2997.8038002736866,False,14,one,moja,False,0.3,-inf,0.3,-inf
3,4,56095.7563999109,inf,True,14,moja,one,True,0.3,-0.4245213767457171,0.3,-inf
4,5,59356.10380023718,1899.6688998304305,True,15,have,na,False,0.3,-inf,0.3,-inf
5,6,63043.70969999582,1956.051399931312,True,19,hot,moto,False,0.3,-inf,0.3,-inf
6,7,67742.49020032585,1758.5878996178506,True,15,na,have,True,0.3,-0.6379829173476895,0.3,-inf
7,8,71052.09959996863,748.4464999288319,True,19,moto,hot,True,0.3,-0.6241469188906361,0.3,-inf
8,9,73355.4060999304,1833.4256000816824,True,20,word,neno,False,0.3,-inf,0.3,-inf
9,10,77491.9354999438,1326.9370999187229,True,22,what,nini,False,0.3,-inf,0.3,-inf
10,11,81836.76350023597,1631.226500030607,True,20,neno,word,True,0.3,-0.6413611523353802,0.3,-inf
11,12,85189.35579992831,704.8899000510572,True,22,nini,what,True,0.3,-0.6122655740249582,0.3,-inf

,trial,start_time,rt,correct,fact_id,question,answer,flipped,alpha,activation,flip_alpha,flip_activation
0,1,27754.898800048973,3688.6990000493824,True,2,I,mimi,False,0.3,-inf,0.3,-inf
1,2,34128.570300061256,inf,True,2,mimi,I,True,0.3,-0.5556527031518672,0.3,-inf
2,3,51978.97659987211,2997.8038002736866,False,14,one,moja,False,0.3,-inf,0.3,-inf
3,4,56095.7563999109,inf,True,14,moja,one,True,0.3,-0.4245213767457171,0.3,-inf
4,5,59356.10380023718,1899.6688998304305,True,15,have,na,False,0.3,-inf,0.3,-inf
5,6,63043.70969999582,1956.051399931312,True,19,hot,moto,False,0.3,-inf,0.3,-inf
6,7,67742.49020032585,1758.5878996178506,True,15,na,have,True,0.3,-0.6379829173476895,0.3,-inf
7,8,71052.09959996863,748.4464999288319,True,19,moto,hot,True,0.3,-0.6241469188906361,0.3,-inf
8,9,73355.4060999304,1833.4256000816824,True,20,word,neno,False,0.3,-inf,0.3,-inf
9,10,77491.9354999438,1326.9370999187229,True,22,what,nini,False,0.3,-inf,0.3,-inf
10,11,81836.76350023597,1631.226500030607,True,20,neno,word,True,0.3,-0.6413611523353802,0.3,-inf
11,12,85189.35579992831,704.8899000510572,True,22,nini,what,True,0.3,-0.6122655740249582,0.3,-inf
12,13,87569.73059987651,2902.273000217974,True,2,mimi,I,True,0.347265625,-0.7670428180047507,0.3,11.972874594361961

,trial,start_time,rt,correct,fact_id,question,answer,flipped,alpha,activation,flip_alpha,flip_activation
0,1,27754.898800048973,3688.6990000493824,True,2,I,mimi,False,0.3,-inf,0.3,-inf
1,2,34128.570300061256,inf,True,2,mimi,I,True,0.3,-0.5556527031518672,0.3,-inf
2,3,51978.97659987211,2997.8038002736866,False,14,one,moja,False,0.3,-inf,0.3,-inf
3,4,56095.7563999109,inf,True,14,moja,one,True,0.3,-0.4245213767457171,0.3,-inf
4,5,59356.10380023718,1899.6688998304305,True,15,have,na,False,0.3,-inf,0.3,-inf
5,6,63043.70969999582,1956.051399931312,True,19,hot,moto,False,0.3,-inf,0.3,-inf
6,7,67742.49020032585,1758.5878996178506,True,15,na,have,True,0.3,-0.6379829173476895,0.3,-inf
7,8,71052.09959996863,748.4464999288319,True,19,moto,hot,True,0.3,-0.6241469188906361,0.3,-inf
8,9,73355.4060999304,1833.4256000816824,True,20,word,neno,False,0.3,-inf,0.3,-inf
9,10,77491.9354999438,1326.9370999187229,True,22,what,nini,False,0.3,-inf,0.3,-inf
10,11,81836.76350023597,1631.226500030607,True,20,neno,word,True,0.3,-0.6413611523353802,0.3,-inf
11,12,85189.35579992831,704.8899000510572,True,22,nini,what,True,0.3,-0.6122655740249582,0.3,-inf
12,13,87569.73059987651,2902.273000217974,True,2,mimi,I,True,0.347265625,-0.7670428180047507,0.3,11.972874594361961
13,14,91952.44010025637,1382.0571997202933,True,26,you,ninyi,False,0.3,-inf,0.3,9.55831613374205

,trial,start_time,rt,correct,fact_id,question,answer,flipped,alpha,activation,flip_alpha,flip_activation
0,1,27754.898800048973,3688.6990000493824,True,2,I,mimi,False,0.3,-inf,0.3,-inf
1,2,34128.570300061256,inf,True,2,mimi,I,True,0.3,-0.5556527031518672,0.3,-inf
2,3,51978.97659987211,2997.8038002736866,False,14,one,moja,False,0.3,-inf,0.3,-inf
3,4,56095.7563999109,inf,True,14,moja,one,True,0.3,-0.4245213767457171,0.3,-inf
4,5,59356.10380023718,1899.6688998304305,True,15,have,na,False,0.3,-inf,0.3,-inf
5,6,63043.70969999582,1956.051399931312,True,19,hot,moto,False,0.3,-inf,0.3,-inf
6,7,67742.49020032585,1758.5878996178506,True,15,na,have,True,0.3,-0.6379829173476895,0.3,-inf
7,8,71052.09959996863,748.4464999288319,True,19,moto,hot,True,0.3,-0.6241469188906361,0.3,-inf
8,9,73355.4060999304,1833.4256000816824,True,20,word,neno,False,0.3,-inf,0.3,-inf
9,10,77491.9354999438,1326.9370999187229,True,22,what,nini,False,0.3,-inf,0.3,-inf
10,11,81836.76350023597,1631.226500030607,True,20,neno,word,True,0.3,-0.6413611523353802,0.3,-inf
11,12,85189.35579992831,704.8899000510572,True,22,nini,what,True,0.3,-0.6122655740249582,0.3,-inf
12,13,87569.73059987651,2902.273000217974,True,2,mimi,I,True,0.347265625,-0.7670428180047507,0.3,11.972874594361961
13,14,91952.44010025637,1382.0571997202933,True,26,you,ninyi,False,0.3,-inf,0.3,9.55831613374205
14,15,96590.41569987312,2749.6167002245784,False,14,moja,one,True,0.349609375,-0.6934006824424633,0.3,-1.1103510288840777

,trial,start_time,rt,correct,fact_id,question,answer,flipped,alpha,activation,flip_alpha,flip_activation
0,1,27754.898800048973,3688.6990000493824,True,2,I,mimi,False,0.3,-inf,0.3,-inf
1,2,34128.570300061256,inf,True,2,mimi,I,True,0.3,-0.5556527031518672,0.3,-inf
2,3,51978.97659987211,2997.8038002736866,False,14,one,moja,False,0.3,-inf,0.3,-inf
3,4,56095.7563999109,inf,True,14,moja,one,True,0.3,-0.4245213767457171,0.3,-inf
4,5,59356.10380023718,1899.6688998304305,True,15,have,na,False,0.3,-inf,0.3,-inf
5,6,63043.70969999582,1956.051399931312,True,19,hot,moto,False,0.3,-inf,0.3,-inf
6,7,67742.49020032585,1758.5878996178506,True,15,na,have,True,0.3,-0.6379829173476895,0.3,-inf
7,8,71052.09959996863,748.4464999288319,True,19,moto,hot,True,0.3,-0.6241469188906361,0.3,-inf
8,9,73355.4060999304,1833.4256000816824,True,20,word,neno,False,0.3,-inf,0.3,-inf
9,10,77491.9354999438,1326.9370999187229,True,22,what,nini,False,0.3,-inf,0.3,-inf
10,11,81836.76350023597,1631.226500030607,True,20,neno,word,True,0.3,-0.6413611523353802,0.3,-inf
11,12,85189.35579992831,704.8899000510572,True,22,nini,what,True,0.3,-0.6122655740249582,0.3,-inf
12,13,87569.73059987651,2902.273000217974,True,2,mimi,I,True,0.347265625,-0.7670428180047507,0.3,11.972874594361961
13,14,91952.44010025637,1382.0571997202933,True,26,you,ninyi,False,0.3,-inf,0.3,-inf
14,15,96590.41569987312,2749.6167002245784,False,14,moja,one,True,0.349609375,-0.6934006824424633,0.3,-1.1103510288840777
15,16,100872.26610025392,6960.9309998340905,False,26,ninyi,you,True,0.3,-0.6564829319024783,0.3,9.55831613374205

,trial,start_time,rt,correct,fact_id,question,answer,flipped,alpha,activation,flip_alpha,flip_activation
0,1,27754.898800048973,3688.6990000493824,True,2,I,mimi,False,0.3,-inf,0.3,-inf
1,2,34128.570300061256,inf,True,2,mimi,I,True,0.3,-0.5556527031518672,0.3,-inf
2,3,51978.97659987211,2997.8038002736866,False,14,one,moja,False,0.3,-inf,0.3,-inf
3,4,56095.7563999109,inf,True,14,moja,one,True,0.3,-0.4245213767457171,0.3,-inf
4,5,59356.10380023718,1899.6688998304305,True,15,have,na,False,0.3,-inf,0.3,-inf
5,6,63043.70969999582,1956.051399931312,True,19,hot,moto,False,0.3,-inf,0.3,-inf
6,7,67742.49020032585,1758.5878996178506,True,15,na,have,True,0.3,-0.6379829173476895,0.3,-inf
7,8,71052.09959996863,748.4464999288319,True,19,moto,hot,True,0.3,-0.6241469188906361,0.3,-inf
8,9,73355.4060999304,1833.4256000816824,True,20,word,neno,False,0.3,-inf,0.3,-inf
9,10,77491.9354999438,1326.9370999187229,True,22,what,nini,False,0.3,-inf,0.3,-inf
10,11,81836.76350023597,1631.226500030607,True,20,neno,word,True,0.3,-0.6413611523353802,0.3,-inf
11,12,85189.35579992831,704.8899000510572,True,22,nini,what,True,0.3,-0.6122655740249582,0.3,-inf
12,13,87569.73059987651,2902.273000217974,True,2,mimi,I,True,0.347265625,-0.7670428180047507,0.3,11.972874594361961
13,14,91952.44010025637,1382.0571997202933,True,26,you,ninyi,False,0.3,-inf,0.3,-inf
14,15,96590.41569987312,2749.6167002245784,False,14,moja,one,True,0.349609375,-0.6934006824424633,0.3,-1.1103510288840777
15,16,100872.26610025392,6960.9309998340905,False,26,ninyi,you,True,0.3,-0.6564829319024783,0.3,9.55831613374205
16,17,108963.38890027256,1572.2636999562385,True,43,time,wakati,False,0.3,-inf,0.3,9.55831613374205

,trial,start_time,rt,correct,fact_id,question,answer,flipped,alpha,activation,flip_alpha,flip_activation
0,1,27754.898800048973,3688.6990000493824,True,2,I,mimi,False,0.3,-inf,0.3,-inf
1,2,34128.570300061256,inf,True,2,mimi,I,True,0.3,-0.5556527031518672,0.3,-inf
2,3,51978.97659987211,2997.8038002736866,False,14,one,moja,False,0.3,-inf,0.3,-inf
3,4,56095.7563999109,inf,True,14,moja,one,True,0.3,-0.4245213767457171,0.3,-inf
4,5,59356.10380023718,1899.6688998304305,True,15,have,na,False,0.3,-inf,0.3,-inf
5,6,63043.70969999582,1956.051399931312,True,19,hot,moto,False,0.3,-inf,0.3,-inf
6,7,67742.49020032585,1758.5878996178506,True,15,na,have,True,0.3,-0.6379829173476895,0.3,-inf
7,8,71052.09959996863,748.4464999288319,True,19,moto,hot,True,0.3,-0.6241469188906361,0.3,-inf
8,9,73355.4060999304,1833.4256000816824,True,20,word,neno,False,0.3,-inf,0.3,-inf
9,10,77491.9354999438,1326.9370999187229,True,22,what,nini,False,0.3,-inf,0.3,-inf
10,11,81836.76350023597,1631.226500030607,True,20,neno,word,True,0.3,-0.6413611523353802,0.3,-inf
11,12,85189.35579992831,704.8899000510572,True,22,nini,what,True,0.3,-0.6122655740249582,0.3,-inf
12,13,87569.73059987651,2902.273000217974,True,2,mimi,I,True,0.347265625,-0.7670428180047507,0.3,11.972874594361961
13,14,91952.44010025637,1382.0571997202933,True,26,you,ninyi,False,0.3,-inf,0.3,-inf
14,15,96590.41569987312,2749.6167002245784,False,14,moja,one,True,0.349609375,-0.6934006824424633,0.3,-1.1103510288840777
15,16,100872.26610025392,6960.9309998340905,False,26,ninyi,you,True,0.3,-0.6564829319024783,0.3,9.55831613374205
16,17,108963.38890027256,1572.2636999562385,True,43,time,wakati,False,0.3,-inf,0.3,9.55831613374205
17,18,113217.68990019336,2675.886099692434,True,50,tell,kuwaambia,False,0.3,-inf,0.3,-inf

,trial,start_time,rt,correct,fact_id,question,answer,flipped,alpha,activation,flip_alpha,flip_activation
0,1,27754.898800048973,3688.6990000493824,True,2,I,mimi,False,0.3,-inf,0.3,-inf
1,2,34128.570300061256,inf,True,2,mimi,I,True,0.3,-0.5556527031518672,0.3,-inf
2,3,51978.97659987211,2997.8038002736866,False,14,one,moja,False,0.3,-inf,0.3,-inf
3,4,56095.7563999109,inf,True,14,moja,one,True,0.3,-0.4245213767457171,0.3,-inf
4,5,59356.10380023718,1899.6688998304305,True,15,have,na,False,0.3,-inf,0.3,-inf
5,6,63043.70969999582,1956.051399931312,True,19,hot,moto,False,0.3,-inf,0.3,-inf
6,7,67742.49020032585,1758.5878996178506,True,15,na,have,True,0.3,-0.6379829173476895,0.3,-inf
7,8,71052.09959996863,748.4464999288319,True,19,moto,hot,True,0.3,-0.6241469188906361,0.3,-inf
8,9,73355.4060999304,1833.4256000816824,True,20,word,neno,False,0.3,-inf,0.3,-inf
9,10,77491.9354999438,1326.9370999187229,True,22,what,nini,False,0.3,-inf,0.3,-inf
10,11,81836.76350023597,1631.226500030607,True,20,neno,word,True,0.3,-0.6413611523353802,0.3,-inf
11,12,85189.35579992831,704.8899000510572,True,22,nini,what,True,0.3,-0.6122655740249582,0.3,-inf
12,13,87569.73059987651,2902.273000217974,True,2,mimi,I,True,0.347265625,-0.7670428180047507,0.3,11.972874594361961
13,14,91952.44010025637,1382.0571997202933,True,26,you,ninyi,False,0.3,-inf,0.3,-inf
14,15,96590.41569987312,2749.6167002245784,False,14,moja,one,True,0.349609375,-0.6934006824424633,0.3,-1.1103510288840777
15,16,100872.26610025392,6960.9309998340905,False,26,ninyi,you,True,0.3,-0.6564829319024783,0.3,9.55831613374205
16,17,108963.38890027256,1572.2636999562385,True,43,time,wakati,False,0.3,-inf,0.3,9.55831613374205
17,18,113217.68990019336,2675.886099692434,True,50,tell,kuwaambia,False,0.3,-inf,0.3,-inf
18,19,123858.28910022974,6574.428699910641,False,43,time,wakati,False,0.3,-0.8103056657714841,0.3,-0.810305665771484

,trial,start_time,rt,correct,fact_id,question,answer,flipped,alpha,activation,flip_alpha,flip_activation
0,1,27754.898800048973,3688.6990000493824,True,2,I,mimi,False,0.3,-inf,0.3,-inf
1,2,34128.570300061256,inf,True,2,mimi,I,True,0.3,-0.5556527031518672,0.3,-inf
2,3,51978.97659987211,2997.8038002736866,False,14,one,moja,False,0.3,-inf,0.3,-inf
3,4,56095.7563999109,inf,True,14,moja,one,True,0.3,-0.4245213767457171,0.3,-inf
4,5,59356.10380023718,1899.6688998304305,True,15,have,na,False,0.3,-inf,0.3,-inf
5,6,63043.70969999582,1956.051399931312,True,19,hot,moto,False,0.3,-inf,0.3,-inf
6,7,67742.49020032585,1758.5878996178506,True,15,na,have,True,0.3,-0.6379829173476895,0.3,-inf
7,8,71052.09959996863,748.4464999288319,True,19,moto,hot,True,0.3,-0.6241469188906361,0.3,-inf
8,9,73355.4060999304,1833.4256000816824,True,20,word,neno,False,0.3,-inf,0.3,-inf
9,10,77491.9354999438,1326.9370999187229,True,22,what,nini,False,0.3,-inf,0.3,-inf
10,11,81836.76350023597,1631.226500030607,True,20,neno,word,True,0.3,-0.6413611523353802,0.3,-inf
11,12,85189.35579992831,704.8899000510572,True,22,nini,what,True,0.3,-0.6122655740249582,0.3,-inf
12,13,87569.73059987651,2902.273000217974,True,2,mimi,I,True,0.347265625,-0.7670428180047507,0.3,11.972874594361961
13,14,91952.44010025637,1382.0571997202933,True,26,you,ninyi,False,0.3,-inf,0.3,-inf
14,15,96590.41569987312,2749.6167002245784,False,14,moja,one,True,0.349609375,-0.6934006824424633,0.3,-1.1103510288840777
15,16,100872.26610025392,6960.9309998340905,False,26,ninyi,you,True,0.3,-0.6564829319024783,0.3,9.55831613374205
16,17,108963.38890027256,1572.2636999562385,True,43,time,wakati,False,0.3,-inf,0.3,9.55831613374205
17,18,113217.68990019336,2675.886099692434,True,50,tell,kuwaambia,False,0.3,-inf,0.3,-inf
18,19,123858.28910022974,6574.428699910641,False,43,time,wakati,False,0.3,-0.8103056657714841,0.3,-0.810305665771484
19,20,131583.765800111,2873.8191998563707,False,50,tell,kuwaambia,False,0.3,-0.8731515785444098,0.3,-0.8731515785444098

,trial,start_time,rt,correct,fact_id,question,answer,flipped,alpha,activation,flip_alpha,flip_activation
0,1,27754.898800048973,3688.6990000493824,True,2,I,mimi,False,0.3,-inf,0.3,-inf
1,2,34128.570300061256,inf,True,2,mimi,I,True,0.3,-0.5556527031518672,0.3,-inf
2,3,51978.97659987211,2997.8038002736866,False,14,one,moja,False,0.3,-inf,0.3,-inf
3,4,56095.7563999109,inf,True,14,moja,one,True,0.3,-0.4245213767457171,0.3,-inf
4,5,59356.10380023718,1899.6688998304305,True,15,have,na,False,0.3,-inf,0.3,-inf
5,6,63043.70969999582,1956.051399931312,True,19,hot,moto,False,0.3,-inf,0.3,-inf
6,7,67742.49020032585,1758.5878996178506,True,15,na,have,True,0.3,-0.6379829173476895,0.3,-inf
7,8,71052.09959996863,748.4464999288319,True,19,moto,hot,True,0.3,-0.6241469188906361,0.3,-inf
8,9,73355.4060999304,1833.4256000816824,True,20,word,neno,False,0.3,-inf,0.3,-inf
9,10,77491.9354999438,1326.9370999187229,True,22,what,nini,False,0.3,-inf,0.3,-inf
10,11,81836.76350023597,1631.226500030607,True,20,neno,word,True,0.3,-0.6413611523353802,0.3,-inf
11,12,85189.35579992831,704.8899000510572,True,22,nini,what,True,0.3,-0.6122655740249582,0.3,-inf
12,13,87569.73059987651,2902.273000217974,True,2,mimi,I,True,0.347265625,-0.7670428180047507,0.3,11.972874594361961
13,14,91952.44010025637,1382.0571997202933,True,26,you,ninyi,False,0.3,-inf,0.3,-inf
14,15,96590.41569987312,2749.6167002245784,False,14,moja,one,True,0.349609375,-0.6934006824424633,0.3,-1.1103510288840777
15,16,100872.26610025392,6960.9309998340905,False,26,ninyi,you,True,0.3,-0.6564829319024783,0.3,9.55831613374205
16,17,108963.38890027256,1572.2636999562385,True,43,time,wakati,False,0.3,-inf,0.3,9.55831613374205
17,18,113217.68990019336,2675.886099692434,True,50,tell,kuwaambia,False,0.3,-inf,0.3,-inf
18,19,123858.28910022974,6574.428699910641,False,43,time,wakati,False,0.3,-0.8103056657714841,0.3,-0.810305665771484
19,20,131583.765800111,2873.8191998563707,False,50,tell,kuwaambia,False,0.3,-0.8731515785444098,0.3,-0.8731515785444098
20,21,139182.16279987243,1455.5337000638249,False,15,na,have,True,0.349609375,-0.8513101781615796,0.3,-1.2806560061053962

,trial,start_time,rt,correct,fact_id,question,answer,flipped,alpha,activation,flip_alpha,flip_activation
0,1,27754.898800048973,3688.6990000493824,True,2,I,mimi,False,0.3,-inf,0.3,-inf
1,2,34128.570300061256,inf,True,2,mimi,I,True,0.3,-0.5556527031518672,0.3,-inf
2,3,51978.97659987211,2997.8038002736866,False,14,one,moja,False,0.3,-inf,0.3,-inf
3,4,56095.7563999109,inf,True,14,moja,one,True,0.3,-0.4245213767457171,0.3,-inf
4,5,59356.10380023718,1899.6688998304305,True,15,have,na,False,0.3,-inf,0.3,-inf
5,6,63043.70969999582,1956.051399931312,True,19,hot,moto,False,0.3,-inf,0.3,-inf
6,7,67742.49020032585,1758.5878996178506,True,15,na,have,True,0.3,-0.6379829173476895,0.3,-inf
7,8,71052.09959996863,748.4464999288319,True,19,moto,hot,True,0.3,-0.6241469188906361,0.3,-inf
8,9,73355.4060999304,1833.4256000816824,True,20,word,neno,False,0.3,-inf,0.3,-inf
9,10,77491.9354999438,1326.9370999187229,True,22,what,nini,False,0.3,-inf,0.3,-inf
10,11,81836.76350023597,1631.226500030607,True,20,neno,word,True,0.3,-0.6413611523353802,0.3,-inf
11,12,85189.35579992831,704.8899000510572,True,22,nini,what,True,0.3,-0.6122655740249582,0.3,-inf
12,13,87569.73059987651,2902.273000217974,True,2,mimi,I,True,0.347265625,-0.7670428180047507,0.3,11.972874594361961
13,14,91952.44010025637,1382.0571997202933,True,26,you,ninyi,False,0.3,-inf,0.3,-inf
14,15,96590.41569987312,2749.6167002245784,False,14,moja,one,True,0.349609375,-0.6934006824424633,0.3,-1.1103510288840777
15,16,100872.26610025392,6960.9309998340905,False,26,ninyi,you,True,0.3,-0.6564829319024783,0.3,9.55831613374205
16,17,108963.38890027256,1572.2636999562385,True,43,time,wakati,False,0.3,-inf,0.3,9.55831613374205
17,18,113217.68990019336,2675.886099692434,True,50,tell,kuwaambia,False,0.3,-inf,0.3,-inf
18,19,123858.28910022974,6574.428699910641,False,43,time,wakati,False,0.3,-0.8103056657714841,0.3,-0.810305665771484
19,20,131583.765800111,2873.8191998563707,False,50,tell,kuwaambia,False,0.3,-0.8731515785444098,0.3,-0.8731515785444098
20,21,139182.16279987243,1455.5337000638249,False,15,na,have,True,0.349609375,-0.8513101781615796,0.3,-1.2806560061053962
21,22,142032.3250000365,inf,False,19,moto,hot,True,0.349609375,-0.8511830067032876,0.3,-1.2787203968270013

,trial,start_time,rt,correct,fact_id,question,answer,flipped,alpha,activation,flip_alpha,flip_activation
0,1,27754.898800048973,3688.6990000493824,True,2,I,mimi,False,0.3,-inf,0.3,-inf
1,2,34128.570300061256,inf,True,2,mimi,I,True,0.3,-0.5556527031518672,0.3,-inf
2,3,51978.97659987211,2997.8038002736866,False,14,one,moja,False,0.3,-inf,0.3,-inf
3,4,56095.7563999109,inf,True,14,moja,one,True,0.3,-0.4245213767457171,0.3,-inf
4,5,59356.10380023718,1899.6688998304305,True,15,have,na,False,0.3,-inf,0.3,-inf
5,6,63043.70969999582,1956.051399931312,True,19,hot,moto,False,0.3,-inf,0.3,-inf
6,7,67742.49020032585,1758.5878996178506,True,15,na,have,True,0.3,-0.6379829173476895,0.3,-inf
7,8,71052.09959996863,748.4464999288319,True,19,moto,hot,True,0.3,-0.6241469188906361,0.3,-inf
8,9,73355.4060999304,1833.4256000816824,True,20,word,neno,False,0.3,-inf,0.3,-inf
9,10,77491.9354999438,1326.9370999187229,True,22,what,nini,False,0.3,-inf,0.3,-inf
10,11,81836.76350023597,1631.226500030607,True,20,neno,word,True,0.3,-0.6413611523353802,0.3,-inf
11,12,85189.35579992831,704.8899000510572,True,22,nini,what,True,0.3,-0.6122655740249582,0.3,-inf
12,13,87569.73059987651,2902.273000217974,True,2,mimi,I,True,0.347265625,-0.7670428180047507,0.3,11.972874594361961
13,14,91952.44010025637,1382.0571997202933,True,26,you,ninyi,False,0.3,-inf,0.3,-inf
14,15,96590.41569987312,2749.6167002245784,False,14,moja,one,True,0.349609375,-0.6934006824424633,0.3,-1.1103510288840777
15,16,100872.26610025392,6960.9309998340905,False,26,ninyi,you,True,0.3,-0.6564829319024783,0.3,9.55831613374205
16,17,108963.38890027256,1572.2636999562385,True,43,time,wakati,False,0.3,-inf,0.3,9.55831613374205
17,18,113217.68990019336,2675.886099692434,True,50,tell,kuwaambia,False,0.3,-inf,0.3,-inf
18,19,123858.28910022974,6574.428699910641,False,43,time,wakati,False,0.3,-0.8103056657714841,0.3,-0.810305665771484
19,20,131583.765800111,2873.8191998563707,False,50,tell,kuwaambia,False,0.3,-0.8731515785444098,0.3,-0.8731515785444098
20,21,139182.16279987243,1455.5337000638249,False,15,na,have,True,0.349609375,-0.8513101781615796,0.3,-1.2806560061053962
21,22,142032.3250000365,inf,False,19,moto,hot,True,0.349609375,-0.8511830067032876,0.3,-1.2787203968270013
22,23,145959.87479994074,1590.7729002647104,True,2,mimi,I,True,0.34609375,-0.8179012698749291,0.250390625,-0.7769829167367246

,trial,start_time,rt,correct,fact_id,question,answer,flipped,alpha,activation,flip_alpha,flip_activation
0,1,27754.898800048973,3688.6990000493824,True,2,I,mimi,False,0.3,-inf,0.3,-inf
1,2,34128.570300061256,inf,True,2,mimi,I,True,0.3,-0.5556527031518672,0.3,-inf
2,3,51978.97659987211,2997.8038002736866,False,14,one,moja,False,0.3,-inf,0.3,-inf
3,4,56095.7563999109,inf,True,14,moja,one,True,0.3,-0.4245213767457171,0.3,-inf
4,5,59356.10380023718,1899.6688998304305,True,15,have,na,False,0.3,-inf,0.3,-inf
5,6,63043.70969999582,1956.051399931312,True,19,hot,moto,False,0.3,-inf,0.3,-inf
6,7,67742.49020032585,1758.5878996178506,True,15,na,have,True,0.3,-0.6379829173476895,0.3,-inf
7,8,71052.09959996863,748.4464999288319,True,19,moto,hot,True,0.3,-0.6241469188906361,0.3,-inf
8,9,73355.4060999304,1833.4256000816824,True,20,word,neno,False,0.3,-inf,0.3,-inf
9,10,77491.9354999438,1326.9370999187229,True,22,what,nini,False,0.3,-inf,0.3,-inf
10,11,81836.76350023597,1631.226500030607,True,20,neno,word,True,0.3,-0.6413611523353802,0.3,-inf
11,12,85189.35579992831,704.8899000510572,True,22,nini,what,True,0.3,-0.6122655740249582,0.3,-inf
12,13,87569.73059987651,2902.273000217974,True,2,mimi,I,True,0.347265625,-0.7670428180047507,0.3,11.972874594361961
13,14,91952.44010025637,1382.0571997202933,True,26,you,ninyi,False,0.3,-inf,0.3,-inf
14,15,96590.41569987312,2749.6167002245784,False,14,moja,one,True,0.349609375,-0.6934006824424633,0.3,-1.1103510288840777
15,16,100872.26610025392,6960.9309998340905,False,26,ninyi,you,True,0.3,-0.6564829319024783,0.3,9.55831613374205
16,17,108963.38890027256,1572.2636999562385,True,43,time,wakati,False,0.3,-inf,0.3,9.55831613374205
17,18,113217.68990019336,2675.886099692434,True,50,tell,kuwaambia,False,0.3,-inf,0.3,-inf
18,19,123858.28910022974,6574.428699910641,False,43,time,wakati,False,0.3,-0.8103056657714841,0.3,-0.810305665771484
19,20,131583.765800111,2873.8191998563707,False,50,tell,kuwaambia,False,0.3,-0.8731515785444098,0.3,-0.8731515785444098
20,21,139182.16279987243,1455.5337000638249,False,15,na,have,True,0.349609375,-0.8513101781615796,0.3,-1.2806560061053962
21,22,142032.3250000365,inf,False,19,moto,hot,True,0.349609375,-0.8511830067032876,0.3,-1.2787203968270013
22,23,145959.87479994074,1590.7729002647104,True,2,mimi,I,True,0.34609375,-0.8179012698749291,0.250390625,-0.7769829167367246
23,24,148870.68000016734,1318.5780998319387,False,20,neno,word,True,0.349609375,-0.8299242643545772,0.3,-1.2615596123170636

,trial,start_time,rt,correct,fact_id,question,answer,flipped,alpha,activation,flip_alpha,flip_activation
0,1,27754.898800048973,3688.6990000493824,True,2,I,mimi,False,0.3,-inf,0.3,-inf
1,2,34128.570300061256,inf,True,2,mimi,I,True,0.3,-0.5556527031518672,0.3,-inf
2,3,51978.97659987211,2997.8038002736866,False,14,one,moja,False,0.3,-inf,0.3,-inf
3,4,56095.7563999109,inf,True,14,moja,one,True,0.3,-0.4245213767457171,0.3,-inf
4,5,59356.10380023718,1899.6688998304305,True,15,have,na,False,0.3,-inf,0.3,-inf
5,6,63043.70969999582,1956.051399931312,True,19,hot,moto,False,0.3,-inf,0.3,-inf
6,7,67742.49020032585,1758.5878996178506,True,15,na,have,True,0.3,-0.6379829173476895,0.3,-inf
7,8,71052.09959996863,748.4464999288319,True,19,moto,hot,True,0.3,-0.6241469188906361,0.3,-inf
8,9,73355.4060999304,1833.4256000816824,True,20,word,neno,False,0.3,-inf,0.3,-inf
9,10,77491.9354999438,1326.9370999187229,True,22,what,nini,False,0.3,-inf,0.3,-inf
10,11,81836.76350023597,1631.226500030607,True,20,neno,word,True,0.3,-0.6413611523353802,0.3,-inf
11,12,85189.35579992831,704.8899000510572,True,22,nini,what,True,0.3,-0.6122655740249582,0.3,-inf
12,13,87569.73059987651,2902.273000217974,True,2,mimi,I,True,0.347265625,-0.7670428180047507,0.3,11.972874594361961
13,14,91952.44010025637,1382.0571997202933,True,26,you,ninyi,False,0.3,-inf,0.3,-inf
14,15,96590.41569987312,2749.6167002245784,False,14,moja,one,True,0.349609375,-0.6934006824424633,0.3,-1.1103510288840777
15,16,100872.26610025392,6960.9309998340905,False,26,ninyi,you,True,0.3,-0.6564829319024783,0.3,9.55831613374205
16,17,108963.38890027256,1572.2636999562385,True,43,time,wakati,False,0.3,-inf,0.3,9.55831613374205
17,18,113217.68990019336,2675.886099692434,True,50,tell,kuwaambia,False,0.3,-inf,0.3,-inf
18,19,123858.28910022974,6574.428699910641,False,43,time,wakati,False,0.3,-0.8103056657714841,0.3,-0.810305665771484
19,20,131583.765800111,2873.8191998563707,False,50,tell,kuwaambia,False,0.3,-0.8731515785444098,0.3,-0.8731515785444098
20,21,139182.16279987243,1455.5337000638249,False,15,na,have,True,0.349609375,-0.8513101781615796,0.3,-1.2806560061053962
21,22,142032.3250000365,inf,False,19,moto,hot,True,0.349609375,-0.8511830067032876,0.3,-1.2787203968270013
22,23,145959.87479994074,1590.7729002647104,True,2,mimi,I,True,0.34609375,-0.8179012698749291,0.250390625,-0.7769829167367246
23,24,148870.68000016734,1318.5780998319387,False,20,neno,word,True,0.349609375,-0.8299242643545772,0.3,-1.2615596123170636
24,25,151585.08430002257,2734.480599872768,False,22,nini,what,True,0.349609375,-0.8308592826286727,0.3,-1.2586898173785837

,trial,start_time,rt,correct,fact_id,question,answer,flipped,alpha,activation,flip_alpha,flip_activation
0,1,27754.898800048973,3688.6990000493824,True,2,I,mimi,False,0.3,-inf,0.3,-inf
1,2,34128.570300061256,inf,True,2,mimi,I,True,0.3,-0.5556527031518672,0.3,-inf
2,3,51978.97659987211,2997.8038002736866,False,14,one,moja,False,0.3,-inf,0.3,-inf
3,4,56095.7563999109,inf,True,14,moja,one,True,0.3,-0.4245213767457171,0.3,-inf
4,5,59356.10380023718,1899.6688998304305,True,15,have,na,False,0.3,-inf,0.3,-inf
5,6,63043.70969999582,1956.051399931312,True,19,hot,moto,False,0.3,-inf,0.3,-inf
6,7,67742.49020032585,1758.5878996178506,True,15,na,have,True,0.3,-0.6379829173476895,0.3,-inf
7,8,71052.09959996863,748.4464999288319,True,19,moto,hot,True,0.3,-0.6241469188906361,0.3,-inf
8,9,73355.4060999304,1833.4256000816824,True,20,word,neno,False,0.3,-inf,0.3,-inf
9,10,77491.9354999438,1326.9370999187229,True,22,what,nini,False,0.3,-inf,0.3,-inf
10,11,81836.76350023597,1631.226500030607,True,20,neno,word,True,0.3,-0.6413611523353802,0.3,-inf
11,12,85189.35579992831,704.8899000510572,True,22,nini,what,True,0.3,-0.6122655740249582,0.3,-inf
12,13,87569.73059987651,2902.273000217974,True,2,mimi,I,True,0.347265625,-0.7670428180047507,0.3,11.972874594361961
13,14,91952.44010025637,1382.0571997202933,True,26,you,ninyi,False,0.3,-inf,0.3,-inf
14,15,96590.41569987312,2749.6167002245784,False,14,moja,one,True,0.349609375,-0.6934006824424633,0.3,-1.1103510288840777
15,16,100872.26610025392,6960.9309998340905,False,26,ninyi,you,True,0.3,-0.6564829319024783,0.3,9.55831613374205
16,17,108963.38890027256,1572.2636999562385,True,43,time,wakati,False,0.3,-inf,0.3,9.55831613374205
17,18,113217.68990019336,2675.886099692434,True,50,tell,kuwaambia,False,0.3,-inf,0.3,-inf
18,19,123858.28910022974,6574.428699910641,False,43,time,wakati,False,0.3,-0.8103056657714841,0.3,-0.810305665771484
19,20,131583.765800111,2873.8191998563707,False,50,tell,kuwaambia,False,0.3,-0.8731515785444098,0.3,-0.8731515785444098
20,21,139182.16279987243,1455.5337000638249,False,15,na,have,True,0.349609375,-0.8513101781615796,0.3,-1.2806560061053962
21,22,142032.3250000365,inf,False,19,moto,hot,True,0.349609375,-0.8511830067032876,0.3,-1.2787203968270013
22,23,145959.87479994074,1590.7729002647104,True,2,mimi,I,True,0.34609375,-0.8179012698749291,0.250390625,-0.7769829167367246
23,24,148870.68000016734,1318.5780998319387,False,20,neno,word,True,0.349609375,-0.8299242643545772,0.3,-1.2615596123170636
24,25,151585.08430002257,2734.480599872768,False,22,nini,what,True,0.349609375,-0.8308592826286727,0.3,-1.2586898173785837
25,26,155686.03420024738,1311.484499834478,False,14,moja,one,True,0.39921875,-0.8301436058445174,0.3394531249999999,-0.7728501450267489

,trial,start_time,rt,correct,fact_id,question,answer,flipped,alpha,activation,flip_alpha,flip_activation
0,1,27754.898800048973,3688.6990000493824,True,2,I,mimi,False,0.3,-inf,0.3,-inf
1,2,34128.570300061256,inf,True,2,mimi,I,True,0.3,-0.5556527031518672,0.3,-inf
2,3,51978.97659987211,2997.8038002736866,False,14,one,moja,False,0.3,-inf,0.3,-inf
3,4,56095.7563999109,inf,True,14,moja,one,True,0.3,-0.4245213767457171,0.3,-inf
4,5,59356.10380023718,1899.6688998304305,True,15,have,na,False,0.3,-inf,0.3,-inf
5,6,63043.70969999582,1956.051399931312,True,19,hot,moto,False,0.3,-inf,0.3,-inf
6,7,67742.49020032585,1758.5878996178506,True,15,na,have,True,0.3,-0.6379829173476895,0.3,-inf
7,8,71052.09959996863,748.4464999288319,True,19,moto,hot,True,0.3,-0.6241469188906361,0.3,-inf
8,9,73355.4060999304,1833.4256000816824,True,20,word,neno,False,0.3,-inf,0.3,-inf
9,10,77491.9354999438,1326.9370999187229,True,22,what,nini,False,0.3,-inf,0.3,-inf
10,11,81836.76350023597,1631.226500030607,True,20,neno,word,True,0.3,-0.6413611523353802,0.3,-inf
11,12,85189.35579992831,704.8899000510572,True,22,nini,what,True,0.3,-0.6122655740249582,0.3,-inf
12,13,87569.73059987651,2902.273000217974,True,2,mimi,I,True,0.347265625,-0.7670428180047507,0.3,11.972874594361961
13,14,91952.44010025637,1382.0571997202933,True,26,you,ninyi,False,0.3,-inf,0.3,-inf
14,15,96590.41569987312,2749.6167002245784,False,14,moja,one,True,0.349609375,-0.6934006824424633,0.3,-1.1103510288840777
15,16,100872.26610025392,6960.9309998340905,False,26,ninyi,you,True,0.3,-0.6564829319024783,0.3,9.55831613374205
16,17,108963.38890027256,1572.2636999562385,True,43,time,wakati,False,0.3,-inf,0.3,9.55831613374205
17,18,113217.68990019336,2675.886099692434,True,50,tell,kuwaambia,False,0.3,-inf,0.3,-inf
18,19,123858.28910022974,6574.428699910641,False,43,time,wakati,False,0.3,-0.8103056657714841,0.3,-0.810305665771484
19,20,131583.765800111,2873.8191998563707,False,50,tell,kuwaambia,False,0.3,-0.8731515785444098,0.3,-0.8731515785444098
20,21,139182.16279987243,1455.5337000638249,False,15,na,have,True,0.349609375,-0.8513101781615796,0.3,-1.2806560061053962
21,22,142032.3250000365,inf,False,19,moto,hot,True,0.349609375,-0.8511830067032876,0.3,-1.2787203968270013
22,23,145959.87479994074,1590.7729002647104,True,2,mimi,I,True,0.34609375,-0.8179012698749291,0.250390625,-0.7769829167367246
23,24,148870.68000016734,1318.5780998319387,False,20,neno,word,True,0.349609375,-0.8299242643545772,0.3,-1.2615596123170636
24,25,151585.08430002257,2734.480599872768,False,22,nini,what,True,0.349609375,-0.8308592826286727,0.3,-1.2586898173785837
25,26,155686.03420024738,1311.484499834478,False,14,moja,one,True,0.39921875,-0.8301436058445174,0.3394531249999999,-0.7728501450267489
26,27,158418.59270026907,2281.419099774212,False,26,ninyi,you,True,0.349609375,-0.778196591431479,0.3,-1.2157770910252979

,trial,start_time,rt,correct,fact_id,question,answer,flipped,alpha,activation,flip_alpha,flip_activation
0,1,27754.898800048973,3688.6990000493824,True,2,I,mimi,False,0.3,-inf,0.3,-inf
1,2,34128.570300061256,inf,True,2,mimi,I,True,0.3,-0.5556527031518672,0.3,-inf
2,3,51978.97659987211,2997.8038002736866,False,14,one,moja,False,0.3,-inf,0.3,-inf
3,4,56095.7563999109,inf,True,14,moja,one,True,0.3,-0.4245213767457171,0.3,-inf
4,5,59356.10380023718,1899.6688998304305,True,15,have,na,False,0.3,-inf,0.3,-inf
5,6,63043.70969999582,1956.051399931312,True,19,hot,moto,False,0.3,-inf,0.3,-inf
6,7,67742.49020032585,1758.5878996178506,True,15,na,have,True,0.3,-0.6379829173476895,0.3,-inf
7,8,71052.09959996863,748.4464999288319,True,19,moto,hot,True,0.3,-0.6241469188906361,0.3,-inf
8,9,73355.4060999304,1833.4256000816824,True,20,word,neno,False,0.3,-inf,0.3,-inf
9,10,77491.9354999438,1326.9370999187229,True,22,what,nini,False,0.3,-inf,0.3,-inf
10,11,81836.76350023597,1631.226500030607,True,20,neno,word,True,0.3,-0.6413611523353802,0.3,-inf
11,12,85189.35579992831,704.8899000510572,True,22,nini,what,True,0.3,-0.6122655740249582,0.3,-inf
12,13,87569.73059987651,2902.273000217974,True,2,mimi,I,True,0.347265625,-0.7670428180047507,0.3,11.972874594361961
13,14,91952.44010025637,1382.0571997202933,True,26,you,ninyi,False,0.3,-inf,0.3,-inf
14,15,96590.41569987312,2749.6167002245784,False,14,moja,one,True,0.349609375,-0.6934006824424633,0.3,-1.1103510288840777
15,16,100872.26610025392,6960.9309998340905,False,26,ninyi,you,True,0.3,-0.6564829319024783,0.3,9.55831613374205
16,17,108963.38890027256,1572.2636999562385,True,43,time,wakati,False,0.3,-inf,0.3,9.55831613374205
17,18,113217.68990019336,2675.886099692434,True,50,tell,kuwaambia,False,0.3,-inf,0.3,-inf
18,19,123858.28910022974,6574.428699910641,False,43,time,wakati,False,0.3,-0.8103056657714841,0.3,-0.810305665771484
19,20,131583.765800111,2873.8191998563707,False,50,tell,kuwaambia,False,0.3,-0.8731515785444098,0.3,-0.8731515785444098
20,21,139182.16279987243,1455.5337000638249,False,15,na,have,True,0.349609375,-0.8513101781615796,0.3,-1.2806560061053962
21,22,142032.3250000365,inf,False,19,moto,hot,True,0.349609375,-0.8511830067032876,0.3,-1.2787203968270013
22,23,145959.87479994074,1590.7729002647104,True,2,mimi,I,True,0.34609375,-0.8179012698749291,0.250390625,-0.7769829167367246
23,24,148870.68000016734,1318.5780998319387,False,20,neno,word,True,0.349609375,-0.8299242643545772,0.3,-1.2615596123170636
24,25,151585.08430002257,2734.480599872768,False,22,nini,what,True,0.349609375,-0.8308592826286727,0.3,-1.2586898173785837
25,26,155686.03420024738,1311.484499834478,False,14,moja,one,True,0.39921875,-0.8301436058445174,0.3394531249999999,-0.7728501450267489
26,27,158418.59270026907,2281.419099774212,False,26,ninyi,you,True,0.349609375,-0.778196591431479,0.3,-1.2157770910252979
27,28,162111.77150020376,1216.0987998358905,True,52,set,kuweka,False,0.3,-inf,0.3,-inf

,trial,start_time,rt,correct,fact_id,question,answer,flipped,alpha,activation,flip_alpha,flip_activation
0,1,27754.898800048973,3688.6990000493824,True,2,I,mimi,False,0.3,-inf,0.3,-inf
1,2,34128.570300061256,inf,True,2,mimi,I,True,0.3,-0.5556527031518672,0.3,-inf
2,3,51978.97659987211,2997.8038002736866,False,14,one,moja,False,0.3,-inf,0.3,-inf
3,4,56095.7563999109,inf,True,14,moja,one,True,0.3,-0.4245213767457171,0.3,-inf
4,5,59356.10380023718,1899.6688998304305,True,15,have,na,False,0.3,-inf,0.3,-inf
5,6,63043.70969999582,1956.051399931312,True,19,hot,moto,False,0.3,-inf,0.3,-inf
6,7,67742.49020032585,1758.5878996178506,True,15,na,have,True,0.3,-0.6379829173476895,0.3,-inf
7,8,71052.09959996863,748.4464999288319,True,19,moto,hot,True,0.3,-0.6241469188906361,0.3,-inf
8,9,73355.4060999304,1833.4256000816824,True,20,word,neno,False,0.3,-inf,0.3,-inf
9,10,77491.9354999438,1326.9370999187229,True,22,what,nini,False,0.3,-inf,0.3,-inf
10,11,81836.76350023597,1631.226500030607,True,20,neno,word,True,0.3,-0.6413611523353802,0.3,-inf
11,12,85189.35579992831,704.8899000510572,True,22,nini,what,True,0.3,-0.6122655740249582,0.3,-inf
12,13,87569.73059987651,2902.273000217974,True,2,mimi,I,True,0.347265625,-0.7670428180047507,0.3,11.972874594361961
13,14,91952.44010025637,1382.0571997202933,True,26,you,ninyi,False,0.3,-inf,0.3,-inf
14,15,96590.41569987312,2749.6167002245784,False,14,moja,one,True,0.349609375,-0.6934006824424633,0.3,-1.1103510288840777
15,16,100872.26610025392,6960.9309998340905,False,26,ninyi,you,True,0.3,-0.6564829319024783,0.3,9.55831613374205
16,17,108963.38890027256,1572.2636999562385,True,43,time,wakati,False,0.3,-inf,0.3,9.55831613374205
17,18,113217.68990019336,2675.886099692434,True,50,tell,kuwaambia,False,0.3,-inf,0.3,-inf
18,19,123858.28910022974,6574.428699910641,False,43,time,wakati,False,0.3,-0.8103056657714841,0.3,-0.810305665771484
19,20,131583.765800111,2873.8191998563707,False,50,tell,kuwaambia,False,0.3,-0.8731515785444098,0.3,-0.8731515785444098
20,21,139182.16279987243,1455.5337000638249,False,15,na,have,True,0.349609375,-0.8513101781615796,0.3,-1.2806560061053962
21,22,142032.3250000365,inf,False,19,moto,hot,True,0.349609375,-0.8511830067032876,0.3,-1.2787203968270013
22,23,145959.87479994074,1590.7729002647104,True,2,mimi,I,True,0.34609375,-0.8179012698749291,0.250390625,-0.7769829167367246
23,24,148870.68000016734,1318.5780998319387,False,20,neno,word,True,0.349609375,-0.8299242643545772,0.3,-1.2615596123170636
24,25,151585.08430002257,2734.480599872768,False,22,nini,what,True,0.349609375,-0.8308592826286727,0.3,-1.2586898173785837
25,26,155686.03420024738,1311.484499834478,False,14,moja,one,True,0.39921875,-0.8301436058445174,0.3394531249999999,-0.7728501450267489
26,27,158418.59270026907,2281.419099774212,False,26,ninyi,you,True,0.349609375,-0.778196591431479,0.3,-1.2157770910252979
27,28,162111.77150020376,1216.0987998358905,True,52,set,kuweka,False,0.3,-inf,0.3,-inf
28,29,166067.43639986962,2202.1326003596187,True,53,three,tatu,False,0.3,-inf,0.3,-inf

,trial,start_time,rt,correct,fact_id,question,answer,flipped,alpha,activation,flip_alpha,flip_activation
0,1,27754.898800048973,3688.6990000493824,True,2,I,mimi,False,0.3,-inf,0.3,-inf
1,2,34128.570300061256,inf,True,2,mimi,I,True,0.3,-0.5556527031518672,0.3,-inf
2,3,51978.97659987211,2997.8038002736866,False,14,one,moja,False,0.3,-inf,0.3,-inf
3,4,56095.7563999109,inf,True,14,moja,one,True,0.3,-0.4245213767457171,0.3,-inf
4,5,59356.10380023718,1899.6688998304305,True,15,have,na,False,0.3,-inf,0.3,-inf
5,6,63043.70969999582,1956.051399931312,True,19,hot,moto,False,0.3,-inf,0.3,-inf
6,7,67742.49020032585,1758.5878996178506,True,15,na,have,True,0.3,-0.6379829173476895,0.3,-inf
7,8,71052.09959996863,748.4464999288319,True,19,moto,hot,True,0.3,-0.6241469188906361,0.3,-inf
8,9,73355.4060999304,1833.4256000816824,True,20,word,neno,False,0.3,-inf,0.3,-inf
9,10,77491.9354999438,1326.9370999187229,True,22,what,nini,False,0.3,-inf,0.3,-inf
10,11,81836.76350023597,1631.226500030607,True,20,neno,word,True,0.3,-0.6413611523353802,0.3,-inf
11,12,85189.35579992831,704.8899000510572,True,22,nini,what,True,0.3,-0.6122655740249582,0.3,-inf
12,13,87569.73059987651,2902.273000217974,True,2,mimi,I,True,0.347265625,-0.7670428180047507,0.3,11.972874594361961
13,14,91952.44010025637,1382.0571997202933,True,26,you,ninyi,False,0.3,-inf,0.3,-inf
14,15,96590.41569987312,2749.6167002245784,False,14,moja,one,True,0.349609375,-0.6934006824424633,0.3,-1.1103510288840777
15,16,100872.26610025392,6960.9309998340905,False,26,ninyi,you,True,0.3,-0.6564829319024783,0.3,9.55831613374205
16,17,108963.38890027256,1572.2636999562385,True,43,time,wakati,False,0.3,-inf,0.3,9.55831613374205
17,18,113217.68990019336,2675.886099692434,True,50,tell,kuwaambia,False,0.3,-inf,0.3,-inf
18,19,123858.28910022974,6574.428699910641,False,43,time,wakati,False,0.3,-0.8103056657714841,0.3,-0.810305665771484
19,20,131583.765800111,2873.8191998563707,False,50,tell,kuwaambia,False,0.3,-0.8731515785444098,0.3,-0.8731515785444098
20,21,139182.16279987243,1455.5337000638249,False,15,na,have,True,0.349609375,-0.8513101781615796,0.3,-1.2806560061053962
21,22,142032.3250000365,inf,False,19,moto,hot,True,0.349609375,-0.8511830067032876,0.3,-1.2787203968270013
22,23,145959.87479994074,1590.7729002647104,True,2,mimi,I,True,0.34609375,-0.8179012698749291,0.250390625,-0.7769829167367246
23,24,148870.68000016734,1318.5780998319387,False,20,neno,word,True,0.349609375,-0.8299242643545772,0.3,-1.2615596123170636
24,25,151585.08430002257,2734.480599872768,False,22,nini,what,True,0.349609375,-0.8308592826286727,0.3,-1.2586898173785837
25,26,155686.03420024738,1311.484499834478,False,14,moja,one,True,0.39921875,-0.8301436058445174,0.3394531249999999,-0.7728501450267489
26,27,158418.59270026907,2281.419099774212,False,26,ninyi,you,True,0.349609375,-0.778196591431479,0.3,-1.2157770910252979
27,28,162111.77150020376,1216.0987998358905,True,52,set,kuweka,False,0.3,-inf,0.3,-inf
28,29,166067.43639986962,2202.1326003596187,True,53,three,tatu,False,0.3,-inf,0.3,-inf
29,30,170065.2610999532,5712.967600207776,False,52,kuweka,set,True,0.3,-0.622083232717048,0.3,-inf

,trial,start_time,rt,correct,fact_id,question,answer,flipped,alpha,activation,flip_alpha,flip_activation
0,1,27754.898800048973,3688.6990000493824,True,2,I,mimi,False,0.3,-inf,0.3,-inf
1,2,34128.570300061256,inf,True,2,mimi,I,True,0.3,-0.5556527031518672,0.3,-inf
2,3,51978.97659987211,2997.8038002736866,False,14,one,moja,False,0.3,-inf,0.3,-inf
3,4,56095.7563999109,inf,True,14,moja,one,True,0.3,-0.4245213767457171,0.3,-inf
4,5,59356.10380023718,1899.6688998304305,True,15,have,na,False,0.3,-inf,0.3,-inf
5,6,63043.70969999582,1956.051399931312,True,19,hot,moto,False,0.3,-inf,0.3,-inf
6,7,67742.49020032585,1758.5878996178506,True,15,na,have,True,0.3,-0.6379829173476895,0.3,-inf
7,8,71052.09959996863,748.4464999288319,True,19,moto,hot,True,0.3,-0.6241469188906361,0.3,-inf
8,9,73355.4060999304,1833.4256000816824,True,20,word,neno,False,0.3,-inf,0.3,-inf
9,10,77491.9354999438,1326.9370999187229,True,22,what,nini,False,0.3,-inf,0.3,-inf
10,11,81836.76350023597,1631.226500030607,True,20,neno,word,True,0.3,-0.6413611523353802,0.3,-inf
11,12,85189.35579992831,704.8899000510572,True,22,nini,what,True,0.3,-0.6122655740249582,0.3,-inf
12,13,87569.73059987651,2902.273000217974,True,2,mimi,I,True,0.347265625,-0.7670428180047507,0.3,11.972874594361961
13,14,91952.44010025637,1382.0571997202933,True,26,you,ninyi,False,0.3,-inf,0.3,-inf
14,15,96590.41569987312,2749.6167002245784,False,14,moja,one,True,0.349609375,-0.6934006824424633,0.3,-1.1103510288840777
15,16,100872.26610025392,6960.9309998340905,False,26,ninyi,you,True,0.3,-0.6564829319024783,0.3,9.55831613374205
16,17,108963.38890027256,1572.2636999562385,True,43,time,wakati,False,0.3,-inf,0.3,9.55831613374205
17,18,113217.68990019336,2675.886099692434,True,50,tell,kuwaambia,False,0.3,-inf,0.3,-inf
18,19,123858.28910022974,6574.428699910641,False,43,time,wakati,False,0.3,-0.8103056657714841,0.3,-0.810305665771484
19,20,131583.765800111,2873.8191998563707,False,50,tell,kuwaambia,False,0.3,-0.8731515785444098,0.3,-0.8731515785444098
20,21,139182.16279987243,1455.5337000638249,False,15,na,have,True,0.349609375,-0.8513101781615796,0.3,-1.2806560061053962
21,22,142032.3250000365,inf,False,19,moto,hot,True,0.349609375,-0.8511830067032876,0.3,-1.2787203968270013
22,23,145959.87479994074,1590.7729002647104,True,2,mimi,I,True,0.34609375,-0.8179012698749291,0.250390625,-0.7769829167367246
23,24,148870.68000016734,1318.5780998319387,False,20,neno,word,True,0.349609375,-0.8299242643545772,0.3,-1.2615596123170636
24,25,151585.08430002257,2734.480599872768,False,22,nini,what,True,0.349609375,-0.8308592826286727,0.3,-1.2586898173785837
25,26,155686.03420024738,1311.484499834478,False,14,moja,one,True,0.39921875,-0.8301436058445174,0.3394531249999999,-0.7728501450267489
26,27,158418.59270026907,2281.419099774212,False,26,ninyi,you,True,0.349609375,-0.778196591431479,0.3,-1.2157770910252979
27,28,162111.77150020376,1216.0987998358905,True,52,set,kuweka,False,0.3,-inf,0.3,-inf
28,29,166067.43639986962,2202.1326003596187,True,53,three,tatu,False,0.3,-inf,0.3,-inf
29,30,170065.2610999532,5712.967600207776,False,52,kuweka,set,True,0.3,-0.622083232717048,0.3,-inf
30,31,177273.9118002355,inf,False,53,tatu,three,True,0.3,-0.7249475315932413,0.3,-inf

,trial,start_time,rt,correct,fact_id,question,answer,flipped,alpha,activation,flip_alpha,flip_activation
0,1,27754.898800048973,3688.6990000493824,True,2,I,mimi,False,0.3,-inf,0.3,-inf
1,2,34128.570300061256,inf,True,2,mimi,I,True,0.3,-0.5556527031518672,0.3,-inf
2,3,51978.97659987211,2997.8038002736866,False,14,one,moja,False,0.3,-inf,0.3,-inf
3,4,56095.7563999109,inf,True,14,moja,one,True,0.3,-0.4245213767457171,0.3,-inf
4,5,59356.10380023718,1899.6688998304305,True,15,have,na,False,0.3,-inf,0.3,-inf
5,6,63043.70969999582,1956.051399931312,True,19,hot,moto,False,0.3,-inf,0.3,-inf
6,7,67742.49020032585,1758.5878996178506,True,15,na,have,True,0.3,-0.6379829173476895,0.3,-0.6379829173476895
7,8,71052.09959996863,748.4464999288319,True,19,moto,hot,True,0.3,-0.6241469188906361,0.3,-inf
8,9,73355.4060999304,1833.4256000816824,True,20,word,neno,False,0.3,-inf,0.3,-inf
9,10,77491.9354999438,1326.9370999187229,True,22,what,nini,False,0.3,-inf,0.3,-inf
10,11,81836.76350023597,1631.226500030607,True,20,neno,word,True,0.3,-0.6413611523353802,0.3,-inf
11,12,85189.35579992831,704.8899000510572,True,22,nini,what,True,0.3,-0.6122655740249582,0.3,-inf
12,13,87569.73059987651,2902.273000217974,True,2,mimi,I,True,0.347265625,-0.7670428180047507,0.3,11.972874594361961
13,14,91952.44010025637,1382.0571997202933,True,26,you,ninyi,False,0.3,-inf,0.3,-inf
14,15,96590.41569987312,2749.6167002245784,False,14,moja,one,True,0.349609375,-0.6934006824424633,0.3,-1.1103510288840777
15,16,100872.26610025392,6960.9309998340905,False,26,ninyi,you,True,0.3,-0.6564829319024783,0.3,9.55831613374205
16,17,108963.38890027256,1572.2636999562385,True,43,time,wakati,False,0.3,-inf,0.3,9.55831613374205
17,18,113217.68990019336,2675.886099692434,True,50,tell,kuwaambia,False,0.3,-inf,0.3,-inf
18,19,123858.28910022974,6574.428699910641,False,43,time,wakati,False,0.3,-0.8103056657714841,0.3,-0.810305665771484
19,20,131583.765800111,2873.8191998563707,False,50,tell,kuwaambia,False,0.3,-0.8731515785444098,0.3,-0.8731515785444098
20,21,139182.16279987243,1455.5337000638249,False,15,na,have,True,0.349609375,-0.8513101781615796,0.3,-1.3139550015086372
21,22,142032.3250000365,inf,False,19,moto,hot,True,0.349609375,-0.8511830067032876,0.3,-1.2787203968270013
22,23,145959.87479994074,1590.7729002647104,True,2,mimi,I,True,0.34609375,-0.8179012698749291,0.250390625,-0.7769829167367246
23,24,148870.68000016734,1318.5780998319387,False,20,neno,word,True,0.349609375,-0.8299242643545772,0.3,-1.2615596123170636
24,25,151585.08430002257,2734.480599872768,False,22,nini,what,True,0.349609375,-0.8308592826286727,0.3,-1.2586898173785837
25,26,155686.03420024738,1311.484499834478,False,14,moja,one,True,0.39921875,-0.8301436058445174,0.3394531249999999,-0.7728501450267489
26,27,158418.59270026907,2281.419099774212,False,26,ninyi,you,True,0.349609375,-0.778196591431479,0.3,-1.2157770910252979
27,28,162111.77150020376,1216.0987998358905,True,52,set,kuweka,False,0.3,-inf,0.3,-inf
28,29,166067.43639986962,2202.1326003596187,True,53,three,tatu,False,0.3,-inf,0.3,-inf
29,30,170065.2610999532,5712.967600207776,False,52,kuweka,set,True,0.3,-0.622083232717048,0.3,-inf
30,31,177273.9118002355,inf,False,53,tatu,three,True,0.3,-0.7249475315932413,0.3,-inf
31,32,182889.68340028077,3872.4384997040033,False,15,have,na,False,0.3937499999999999,-0.7642377097132941,0.3,-1.4449539056116592

,trial,start_time,rt,correct,fact_id,question,answer,flipped,alpha,activation,flip_alpha,flip_activation
0,1,27754.898800048973,3688.6990000493824,True,2,I,mimi,False,0.3,-inf,0.3,-inf
1,2,34128.570300061256,inf,True,2,mimi,I,True,0.3,-0.5556527031518672,0.3,-inf
2,3,51978.97659987211,2997.8038002736866,False,14,one,moja,False,0.3,-inf,0.3,-inf
3,4,56095.7563999109,inf,True,14,moja,one,True,0.3,-0.4245213767457171,0.3,-inf
4,5,59356.10380023718,1899.6688998304305,True,15,have,na,False,0.3,-inf,0.3,-inf
5,6,63043.70969999582,1956.051399931312,True,19,hot,moto,False,0.3,-inf,0.3,-inf
6,7,67742.49020032585,1758.5878996178506,True,15,na,have,True,0.3,-0.6379829173476895,0.3,-0.6379829173476895
7,8,71052.09959996863,748.4464999288319,True,19,moto,hot,True,0.3,-0.6241469188906361,0.3,-inf
8,9,73355.4060999304,1833.4256000816824,True,20,word,neno,False,0.3,-inf,0.3,-inf
9,10,77491.9354999438,1326.9370999187229,True,22,what,nini,False,0.3,-inf,0.3,-inf
10,11,81836.76350023597,1631.226500030607,True,20,neno,word,True,0.3,-0.6413611523353802,0.3,-inf
11,12,85189.35579992831,704.8899000510572,True,22,nini,what,True,0.3,-0.6122655740249582,0.3,-inf
12,13,87569.73059987651,2902.273000217974,True,2,mimi,I,True,0.347265625,-0.7670428180047507,0.3,11.972874594361961
13,14,91952.44010025637,1382.0571997202933,True,26,you,ninyi,False,0.3,-inf,0.3,-inf
14,15,96590.41569987312,2749.6167002245784,False,14,moja,one,True,0.349609375,-0.6934006824424633,0.3,-1.1103510288840777
15,16,100872.26610025392,6960.9309998340905,False,26,ninyi,you,True,0.3,-0.6564829319024783,0.3,9.55831613374205
16,17,108963.38890027256,1572.2636999562385,True,43,time,wakati,False,0.3,-inf,0.3,9.55831613374205
17,18,113217.68990019336,2675.886099692434,True,50,tell,kuwaambia,False,0.3,-inf,0.3,-inf
18,19,123858.28910022974,6574.428699910641,False,43,time,wakati,False,0.3,-0.8103056657714841,0.3,-0.810305665771484
19,20,131583.765800111,2873.8191998563707,False,50,tell,kuwaambia,False,0.3,-0.8731515785444098,0.3,-0.8731515785444098
20,21,139182.16279987243,1455.5337000638249,False,15,na,have,True,0.349609375,-0.8513101781615796,0.3,-1.3139550015086372
21,22,142032.3250000365,inf,False,19,moto,hot,True,0.349609375,-0.8511830067032876,0.3,-1.2787203968270013
22,23,145959.87479994074,1590.7729002647104,True,2,mimi,I,True,0.34609375,-0.8179012698749291,0.250390625,-0.7769829167367246
23,24,148870.68000016734,1318.5780998319387,False,20,neno,word,True,0.349609375,-0.8299242643545772,0.3,-1.2615596123170636
24,25,151585.08430002257,2734.480599872768,False,22,nini,what,True,0.349609375,-0.8308592826286727,0.3,-1.2586898173785837
25,26,155686.03420024738,1311.484499834478,False,14,moja,one,True,0.39921875,-0.8301436058445174,0.3394531249999999,-0.7728501450267489
26,27,158418.59270026907,2281.419099774212,False,26,ninyi,you,True,0.349609375,-0.778196591431479,0.3,-1.2157770910252979
27,28,162111.77150020376,1216.0987998358905,True,52,set,kuweka,False,0.3,-inf,0.3,-inf
28,29,166067.43639986962,2202.1326003596187,True,53,three,tatu,False,0.3,-inf,0.3,-inf
29,30,170065.2610999532,5712.967600207776,False,52,kuweka,set,True,0.3,-0.622083232717048,0.3,-inf
30,31,177273.9118002355,inf,False,53,tatu,three,True,0.3,-0.7249475315932413,0.3,-inf
31,32,182889.68340028077,3872.4384997040033,False,15,have,na,False,0.3937499999999999,-0.7642377097132941,0.3,-1.4449539056116592
32,33,188426.61940027028,inf,False,43,time,wakati,False,0.349609375,-0.8000138259244435,0.349609375,-0.8000138259244435

,trial,start_time,rt,correct,fact_id,question,answer,flipped,alpha,activation,flip_alpha,flip_activation
0,1,27754.898800048973,3688.6990000493824,True,2,I,mimi,False,0.3,-inf,0.3,-inf
1,2,34128.570300061256,inf,True,2,mimi,I,True,0.3,-0.5556527031518672,0.3,-inf
2,3,51978.97659987211,2997.8038002736866,False,14,one,moja,False,0.3,-inf,0.3,-inf
3,4,56095.7563999109,inf,True,14,moja,one,True,0.3,-0.4245213767457171,0.3,-0.4245213767457171
4,5,59356.10380023718,1899.6688998304305,True,15,have,na,False,0.3,-inf,0.3,-inf
5,6,63043.70969999582,1956.051399931312,True,19,hot,moto,False,0.3,-inf,0.3,-inf
6,7,67742.49020032585,1758.5878996178506,True,15,na,have,True,0.3,-0.6379829173476895,0.3,-0.6379829173476895
7,8,71052.09959996863,748.4464999288319,True,19,moto,hot,True,0.3,-0.6241469188906361,0.3,-inf
8,9,73355.4060999304,1833.4256000816824,True,20,word,neno,False,0.3,-inf,0.3,-inf
9,10,77491.9354999438,1326.9370999187229,True,22,what,nini,False,0.3,-inf,0.3,-inf
10,11,81836.76350023597,1631.226500030607,True,20,neno,word,True,0.3,-0.6413611523353802,0.3,-inf
11,12,85189.35579992831,704.8899000510572,True,22,nini,what,True,0.3,-0.6122655740249582,0.3,-inf
12,13,87569.73059987651,2902.273000217974,True,2,mimi,I,True,0.347265625,-0.7670428180047507,0.3,11.972874594361961
13,14,91952.44010025637,1382.0571997202933,True,26,you,ninyi,False,0.3,-inf,0.3,-inf
14,15,96590.41569987312,2749.6167002245784,False,14,moja,one,True,0.349609375,-0.6934006824424633,0.3,-1.1393970924608758
15,16,100872.26610025392,6960.9309998340905,False,26,ninyi,you,True,0.3,-0.6564829319024783,0.3,9.55831613374205
16,17,108963.38890027256,1572.2636999562385,True,43,time,wakati,False,0.3,-inf,0.3,9.55831613374205
17,18,113217.68990019336,2675.886099692434,True,50,tell,kuwaambia,False,0.3,-inf,0.3,-inf
18,19,123858.28910022974,6574.428699910641,False,43,time,wakati,False,0.3,-0.8103056657714841,0.3,-0.810305665771484
19,20,131583.765800111,2873.8191998563707,False,50,tell,kuwaambia,False,0.3,-0.8731515785444098,0.3,-0.8731515785444098
20,21,139182.16279987243,1455.5337000638249,False,15,na,have,True,0.349609375,-0.8513101781615796,0.3,-1.3139550015086372
21,22,142032.3250000365,inf,False,19,moto,hot,True,0.349609375,-0.8511830067032876,0.3,-1.2787203968270013
22,23,145959.87479994074,1590.7729002647104,True,2,mimi,I,True,0.34609375,-0.8179012698749291,0.250390625,-0.7769829167367246
23,24,148870.68000016734,1318.5780998319387,False,20,neno,word,True,0.349609375,-0.8299242643545772,0.3,-1.2615596123170636
24,25,151585.08430002257,2734.480599872768,False,22,nini,what,True,0.349609375,-0.8308592826286727,0.3,-1.2586898173785837
25,26,155686.03420024738,1311.484499834478,False,14,moja,one,True,0.39921875,-0.8301436058445174,0.3,-1.3924710512347434
26,27,158418.59270026907,2281.419099774212,False,26,ninyi,you,True,0.349609375,-0.778196591431479,0.3,-1.2157770910252979
27,28,162111.77150020376,1216.0987998358905,True,52,set,kuweka,False,0.3,-inf,0.3,-inf
28,29,166067.43639986962,2202.1326003596187,True,53,three,tatu,False,0.3,-inf,0.3,-inf
29,30,170065.2610999532,5712.967600207776,False,52,kuweka,set,True,0.3,-0.622083232717048,0.3,-inf
30,31,177273.9118002355,inf,False,53,tatu,three,True,0.3,-0.7249475315932413,0.3,-inf
31,32,182889.68340028077,3872.4384997040033,False,15,have,na,False,0.3937499999999999,-0.7642377097132941,0.3,-1.4449539056116592
32,33,188426.61940027028,inf,False,43,time,wakati,False,0.349609375,-0.8000138259244435,0.349609375,-0.8000138259244435
33,34,194221.72980010512,5025.865499861538,False,14,one,moja,False,0.448046875,-0.8039338998822523,0.3,11.11129118592257

,trial,start_time,rt,correct,fact_id,question,answer,flipped,alpha,activation,flip_alpha,flip_activation
0,1,27754.898800048973,3688.6990000493824,True,2,I,mimi,False,0.3,-inf,0.3,-inf
1,2,34128.570300061256,inf,True,2,mimi,I,True,0.3,-0.5556527031518672,0.3,-inf
2,3,51978.97659987211,2997.8038002736866,False,14,one,moja,False,0.3,-inf,0.3,-inf
3,4,56095.7563999109,inf,True,14,moja,one,True,0.3,-0.4245213767457171,0.3,-0.4245213767457171
4,5,59356.10380023718,1899.6688998304305,True,15,have,na,False,0.3,-inf,0.3,-inf
5,6,63043.70969999582,1956.051399931312,True,19,hot,moto,False,0.3,-inf,0.3,-inf
6,7,67742.49020032585,1758.5878996178506,True,15,na,have,True,0.3,-0.6379829173476895,0.3,-0.6379829173476895
7,8,71052.09959996863,748.4464999288319,True,19,moto,hot,True,0.3,-0.6241469188906361,0.3,-inf
8,9,73355.4060999304,1833.4256000816824,True,20,word,neno,False,0.3,-inf,0.3,-inf
9,10,77491.9354999438,1326.9370999187229,True,22,what,nini,False,0.3,-inf,0.3,-inf
10,11,81836.76350023597,1631.226500030607,True,20,neno,word,True,0.3,-0.6413611523353802,0.3,-inf
11,12,85189.35579992831,704.8899000510572,True,22,nini,what,True,0.3,-0.6122655740249582,0.3,-inf
12,13,87569.73059987651,2902.273000217974,True,2,mimi,I,True,0.347265625,-0.7670428180047507,0.3,11.972874594361961
13,14,91952.44010025637,1382.0571997202933,True,26,you,ninyi,False,0.3,-inf,0.3,-inf
14,15,96590.41569987312,2749.6167002245784,False,14,moja,one,True,0.349609375,-0.6934006824424633,0.3,-1.1393970924608758
15,16,100872.26610025392,6960.9309998340905,False,26,ninyi,you,True,0.3,-0.6564829319024783,0.3,9.55831613374205
16,17,108963.38890027256,1572.2636999562385,True,43,time,wakati,False,0.3,-inf,0.3,9.55831613374205
17,18,113217.68990019336,2675.886099692434,True,50,tell,kuwaambia,False,0.3,-inf,0.3,-inf
18,19,123858.28910022974,6574.428699910641,False,43,time,wakati,False,0.3,-0.8103056657714841,0.3,-0.810305665771484
19,20,131583.765800111,2873.8191998563707,False,50,tell,kuwaambia,False,0.3,-0.8731515785444098,0.3,-0.8731515785444098
20,21,139182.16279987243,1455.5337000638249,False,15,na,have,True,0.349609375,-0.8513101781615796,0.3,-1.3139550015086372
21,22,142032.3250000365,inf,False,19,moto,hot,True,0.349609375,-0.8511830067032876,0.3,-1.2787203968270013
22,23,145959.87479994074,1590.7729002647104,True,2,mimi,I,True,0.34609375,-0.8179012698749291,0.250390625,-0.7769829167367246
23,24,148870.68000016734,1318.5780998319387,False,20,neno,word,True,0.349609375,-0.8299242643545772,0.3,-1.2615596123170636
24,25,151585.08430002257,2734.480599872768,False,22,nini,what,True,0.349609375,-0.8308592826286727,0.3,-1.2586898173785837
25,26,155686.03420024738,1311.484499834478,False,14,moja,one,True,0.39921875,-0.8301436058445174,0.3,-1.3924710512347434
26,27,158418.59270026907,2281.419099774212,False,26,ninyi,you,True,0.349609375,-0.778196591431479,0.3,-1.2157770910252979
27,28,162111.77150020376,1216.0987998358905,True,52,set,kuweka,False,0.3,-inf,0.3,-inf
28,29,166067.43639986962,2202.1326003596187,True,53,three,tatu,False,0.3,-inf,0.3,-inf
29,30,170065.2610999532,5712.967600207776,False,52,kuweka,set,True,0.3,-0.622083232717048,0.3,-inf
30,31,177273.9118002355,inf,False,53,tatu,three,True,0.3,-0.7249475315932413,0.3,-inf
31,32,182889.68340028077,3872.4384997040033,False,15,have,na,False,0.3937499999999999,-0.7642377097132941,0.3,-1.4449539056116592
32,33,188426.61940027028,inf,False,43,time,wakati,False,0.349609375,-0.8000138259244435,0.349609375,-0.8000138259244435
33,34,194221.72980010512,5025.865499861538,False,14,one,moja,False,0.448046875,-0.8039338998822523,0.3,11.11129118592257
34,35,201023.2572001405,1417.336800135672,True,19,moto,hot,True,0.30000000000000004,-0.8458079603965087,0.287109375,-0.7901730467762637

,trial,start_time,rt,correct,fact_id,question,answer,flipped,alpha,activation,flip_alpha,flip_activation
0,1,27754.898800048973,3688.6990000493824,True,2,I,mimi,False,0.3,-inf,0.3,-inf
1,2,34128.570300061256,inf,True,2,mimi,I,True,0.3,-0.5556527031518672,0.3,-inf
2,3,51978.97659987211,2997.8038002736866,False,14,one,moja,False,0.3,-inf,0.3,-inf
3,4,56095.7563999109,inf,True,14,moja,one,True,0.3,-0.4245213767457171,0.3,-0.4245213767457171
4,5,59356.10380023718,1899.6688998304305,True,15,have,na,False,0.3,-inf,0.3,-inf
5,6,63043.70969999582,1956.051399931312,True,19,hot,moto,False,0.3,-inf,0.3,-inf
6,7,67742.49020032585,1758.5878996178506,True,15,na,have,True,0.3,-0.6379829173476895,0.3,-0.6379829173476895
7,8,71052.09959996863,748.4464999288319,True,19,moto,hot,True,0.3,-0.6241469188906361,0.3,-inf
8,9,73355.4060999304,1833.4256000816824,True,20,word,neno,False,0.3,-inf,0.3,-inf
9,10,77491.9354999438,1326.9370999187229,True,22,what,nini,False,0.3,-inf,0.3,-inf
10,11,81836.76350023597,1631.226500030607,True,20,neno,word,True,0.3,-0.6413611523353802,0.3,-inf
11,12,85189.35579992831,704.8899000510572,True,22,nini,what,True,0.3,-0.6122655740249582,0.3,-inf
12,13,87569.73059987651,2902.273000217974,True,2,mimi,I,True,0.347265625,-0.7670428180047507,0.3,11.972874594361961
13,14,91952.44010025637,1382.0571997202933,True,26,you,ninyi,False,0.3,-inf,0.3,-inf
14,15,96590.41569987312,2749.6167002245784,False,14,moja,one,True,0.349609375,-0.6934006824424633,0.3,-1.1393970924608758
15,16,100872.26610025392,6960.9309998340905,False,26,ninyi,you,True,0.3,-0.6564829319024783,0.3,9.55831613374205
16,17,108963.38890027256,1572.2636999562385,True,43,time,wakati,False,0.3,-inf,0.3,9.55831613374205
17,18,113217.68990019336,2675.886099692434,True,50,tell,kuwaambia,False,0.3,-inf,0.3,-inf
18,19,123858.28910022974,6574.428699910641,False,43,time,wakati,False,0.3,-0.8103056657714841,0.3,-0.810305665771484
19,20,131583.765800111,2873.8191998563707,False,50,tell,kuwaambia,False,0.3,-0.8731515785444098,0.3,-0.8731515785444098
20,21,139182.16279987243,1455.5337000638249,False,15,na,have,True,0.349609375,-0.8513101781615796,0.3,-1.3139550015086372
21,22,142032.3250000365,inf,False,19,moto,hot,True,0.349609375,-0.8511830067032876,0.3,-1.2787203968270013
22,23,145959.87479994074,1590.7729002647104,True,2,mimi,I,True,0.34609375,-0.8179012698749291,0.250390625,-0.7769829167367246
23,24,148870.68000016734,1318.5780998319387,False,20,neno,word,True,0.349609375,-0.8299242643545772,0.3,-1.2615596123170636
24,25,151585.08430002257,2734.480599872768,False,22,nini,what,True,0.349609375,-0.8308592826286727,0.3,-1.2586898173785837
25,26,155686.03420024738,1311.484499834478,False,14,moja,one,True,0.39921875,-0.8301436058445174,0.3,-1.3924710512347434
26,27,158418.59270026907,2281.419099774212,False,26,ninyi,you,True,0.349609375,-0.778196591431479,0.3,-1.2157770910252979
27,28,162111.77150020376,1216.0987998358905,True,52,set,kuweka,False,0.3,-inf,0.3,-inf
28,29,166067.43639986962,2202.1326003596187,True,53,three,tatu,False,0.3,-inf,0.3,-inf
29,30,170065.2610999532,5712.967600207776,False,52,kuweka,set,True,0.3,-0.622083232717048,0.3,-inf
30,31,177273.9118002355,inf,False,53,tatu,three,True,0.3,-0.7249475315932413,0.3,-inf
31,32,182889.68340028077,3872.4384997040033,False,15,have,na,False,0.3937499999999999,-0.7642377097132941,0.3,-1.4449539056116592
32,33,188426.61940027028,inf,False,43,time,wakati,False,0.349609375,-0.8000138259244435,0.349609375,-0.8000138259244435
33,34,194221.72980010512,5025.865499861538,False,14,one,moja,False,0.448046875,-0.8039338998822523,0.3,11.11129118592257
34,35,201023.2572001405,1417.336800135672,True,19,moto,hot,True,0.30000000000000004,-0.8458079603965087,0.287109375,-0.7901730467762637
35,36,203858.6434000172,inf,False,50,tell,kuwaambia,False,0.349609375,-0.8305713044966855,0.349609375,14.29233786158497

,trial,start_time,rt,correct,fact_id,question,answer,flipped,alpha,activation,flip_alpha,flip_activation
0,1,27754.898800048973,3688.6990000493824,True,2,I,mimi,False,0.3,-inf,0.3,-inf
1,2,34128.570300061256,inf,True,2,mimi,I,True,0.3,-0.5556527031518672,0.3,-inf
2,3,51978.97659987211,2997.8038002736866,False,14,one,moja,False,0.3,-inf,0.3,-inf
3,4,56095.7563999109,inf,True,14,moja,one,True,0.3,-0.4245213767457171,0.3,-0.4245213767457171
4,5,59356.10380023718,1899.6688998304305,True,15,have,na,False,0.3,-inf,0.3,-inf
5,6,63043.70969999582,1956.051399931312,True,19,hot,moto,False,0.3,-inf,0.3,-inf
6,7,67742.49020032585,1758.5878996178506,True,15,na,have,True,0.3,-0.6379829173476895,0.3,-0.6379829173476895
7,8,71052.09959996863,748.4464999288319,True,19,moto,hot,True,0.3,-0.6241469188906361,0.3,-inf
8,9,73355.4060999304,1833.4256000816824,True,20,word,neno,False,0.3,-inf,0.3,-inf
9,10,77491.9354999438,1326.9370999187229,True,22,what,nini,False,0.3,-inf,0.3,-inf
10,11,81836.76350023597,1631.226500030607,True,20,neno,word,True,0.3,-0.6413611523353802,0.3,-inf
11,12,85189.35579992831,704.8899000510572,True,22,nini,what,True,0.3,-0.6122655740249582,0.3,-inf
12,13,87569.73059987651,2902.273000217974,True,2,mimi,I,True,0.347265625,-0.7670428180047507,0.3,11.972874594361961
13,14,91952.44010025637,1382.0571997202933,True,26,you,ninyi,False,0.3,-inf,0.3,-inf
14,15,96590.41569987312,2749.6167002245784,False,14,moja,one,True,0.349609375,-0.6934006824424633,0.3,-1.1393970924608758
15,16,100872.26610025392,6960.9309998340905,False,26,ninyi,you,True,0.3,-0.6564829319024783,0.3,9.55831613374205
16,17,108963.38890027256,1572.2636999562385,True,43,time,wakati,False,0.3,-inf,0.3,9.55831613374205
17,18,113217.68990019336,2675.886099692434,True,50,tell,kuwaambia,False,0.3,-inf,0.3,-inf
18,19,123858.28910022974,6574.428699910641,False,43,time,wakati,False,0.3,-0.8103056657714841,0.3,-0.810305665771484
19,20,131583.765800111,2873.8191998563707,False,50,tell,kuwaambia,False,0.3,-0.8731515785444098,0.3,-0.8731515785444098
20,21,139182.16279987243,1455.5337000638249,False,15,na,have,True,0.349609375,-0.8513101781615796,0.3,-1.3139550015086372
21,22,142032.3250000365,inf,False,19,moto,hot,True,0.349609375,-0.8511830067032876,0.3,-1.2787203968270013
22,23,145959.87479994074,1590.7729002647104,True,2,mimi,I,True,0.34609375,-0.8179012698749291,0.250390625,-0.7769829167367246
23,24,148870.68000016734,1318.5780998319387,False,20,neno,word,True,0.349609375,-0.8299242643545772,0.3,-1.2615596123170636
24,25,151585.08430002257,2734.480599872768,False,22,nini,what,True,0.349609375,-0.8308592826286727,0.3,-1.2586898173785837
25,26,155686.03420024738,1311.484499834478,False,14,moja,one,True,0.39921875,-0.8301436058445174,0.3,-1.3924710512347434
26,27,158418.59270026907,2281.419099774212,False,26,ninyi,you,True,0.349609375,-0.778196591431479,0.3,-1.2157770910252979
27,28,162111.77150020376,1216.0987998358905,True,52,set,kuweka,False,0.3,-inf,0.3,-inf
28,29,166067.43639986962,2202.1326003596187,True,53,three,tatu,False,0.3,-inf,0.3,-inf
29,30,170065.2610999532,5712.967600207776,False,52,kuweka,set,True,0.3,-0.622083232717048,0.3,-inf
30,31,177273.9118002355,inf,False,53,tatu,three,True,0.3,-0.7249475315932413,0.3,-inf
31,32,182889.68340028077,3872.4384997040033,False,15,have,na,False,0.3937499999999999,-0.7642377097132941,0.3,-1.4449539056116592
32,33,188426.61940027028,inf,False,43,time,wakati,False,0.349609375,-0.8000138259244435,0.349609375,-0.8000138259244435
33,34,194221.72980010512,5025.865499861538,False,14,one,moja,False,0.448046875,-0.8039338998822523,0.3,11.11129118592257
34,35,201023.2572001405,1417.336800135672,True,19,moto,hot,True,0.30000000000000004,-0.8458079603965087,0.287109375,-0.7901730467762637
35,36,203858.6434000172,inf,False,50,tell,kuwaambia,False,0.349609375,-0.8305713044966855,0.349609375,14.29233786158497
36,37,207856.51390021667,inf,False,20,neno,word,True,0.3984375,-0.8396263260916801,0.300390625,-0.7877914677200328

,trial,start_time,rt,correct,fact_id,question,answer,flipped,alpha,activation,flip_alpha,flip_activation
0,1,27754.898800048973,3688.6990000493824,True,2,I,mimi,False,0.3,-inf,0.3,-inf
1,2,34128.570300061256,inf,True,2,mimi,I,True,0.3,-0.5556527031518672,0.3,-inf
2,3,51978.97659987211,2997.8038002736866,False,14,one,moja,False,0.3,-inf,0.3,-inf
3,4,56095.7563999109,inf,True,14,moja,one,True,0.3,-0.4245213767457171,0.3,-0.4245213767457171
4,5,59356.10380023718,1899.6688998304305,True,15,have,na,False,0.3,-inf,0.3,-inf
5,6,63043.70969999582,1956.051399931312,True,19,hot,moto,False,0.3,-inf,0.3,-inf
6,7,67742.49020032585,1758.5878996178506,True,15,na,have,True,0.3,-0.6379829173476895,0.3,-0.6379829173476895
7,8,71052.09959996863,748.4464999288319,True,19,moto,hot,True,0.3,-0.6241469188906361,0.3,-inf
8,9,73355.4060999304,1833.4256000816824,True,20,word,neno,False,0.3,-inf,0.3,-inf
9,10,77491.9354999438,1326.9370999187229,True,22,what,nini,False,0.3,-inf,0.3,-inf
10,11,81836.76350023597,1631.226500030607,True,20,neno,word,True,0.3,-0.6413611523353802,0.3,-inf
11,12,85189.35579992831,704.8899000510572,True,22,nini,what,True,0.3,-0.6122655740249582,0.3,-inf
12,13,87569.73059987651,2902.273000217974,True,2,mimi,I,True,0.347265625,-0.7670428180047507,0.3,11.972874594361961
13,14,91952.44010025637,1382.0571997202933,True,26,you,ninyi,False,0.3,-inf,0.3,-inf
14,15,96590.41569987312,2749.6167002245784,False,14,moja,one,True,0.349609375,-0.6934006824424633,0.3,-1.1393970924608758
15,16,100872.26610025392,6960.9309998340905,False,26,ninyi,you,True,0.3,-0.6564829319024783,0.3,9.55831613374205
16,17,108963.38890027256,1572.2636999562385,True,43,time,wakati,False,0.3,-inf,0.3,9.55831613374205
17,18,113217.68990019336,2675.886099692434,True,50,tell,kuwaambia,False,0.3,-inf,0.3,-inf
18,19,123858.28910022974,6574.428699910641,False,43,time,wakati,False,0.3,-0.8103056657714841,0.3,-0.810305665771484
19,20,131583.765800111,2873.8191998563707,False,50,tell,kuwaambia,False,0.3,-0.8731515785444098,0.3,-0.8731515785444098
20,21,139182.16279987243,1455.5337000638249,False,15,na,have,True,0.349609375,-0.8513101781615796,0.3,-1.3139550015086372
21,22,142032.3250000365,inf,False,19,moto,hot,True,0.349609375,-0.8511830067032876,0.3,-1.2787203968270013
22,23,145959.87479994074,1590.7729002647104,True,2,mimi,I,True,0.34609375,-0.8179012698749291,0.250390625,-0.7769829167367246
23,24,148870.68000016734,1318.5780998319387,False,20,neno,word,True,0.349609375,-0.8299242643545772,0.3,-1.2615596123170636
24,25,151585.08430002257,2734.480599872768,False,22,nini,what,True,0.349609375,-0.8308592826286727,0.3,-1.2586898173785837
25,26,155686.03420024738,1311.484499834478,False,14,moja,one,True,0.39921875,-0.8301436058445174,0.3,-1.3924710512347434
26,27,158418.59270026907,2281.419099774212,False,26,ninyi,you,True,0.349609375,-0.778196591431479,0.3,-1.2157770910252979
27,28,162111.77150020376,1216.0987998358905,True,52,set,kuweka,False,0.3,-inf,0.3,-inf
28,29,166067.43639986962,2202.1326003596187,True,53,three,tatu,False,0.3,-inf,0.3,-inf
29,30,170065.2610999532,5712.967600207776,False,52,kuweka,set,True,0.3,-0.622083232717048,0.3,-inf
30,31,177273.9118002355,inf,False,53,tatu,three,True,0.3,-0.7249475315932413,0.3,-inf
31,32,182889.68340028077,3872.4384997040033,False,15,have,na,False,0.3937499999999999,-0.7642377097132941,0.3,-1.4449539056116592
32,33,188426.61940027028,inf,False,43,time,wakati,False,0.349609375,-0.8000138259244435,0.349609375,-0.8000138259244435
33,34,194221.72980010512,5025.865499861538,False,14,one,moja,False,0.448046875,-0.8039338998822523,0.3,11.11129118592257
34,35,201023.2572001405,1417.336800135672,True,19,moto,hot,True,0.30000000000000004,-0.8458079603965087,0.287109375,-0.7901730467762637
35,36,203858.6434000172,inf,False,50,tell,kuwaambia,False,0.349609375,-0.8305713044966855,0.349609375,14.29233786158497
36,37,207856.51390021667,inf,False,20,neno,word,True,0.3984375,-0.8396263260916801,0.300390625,-0.7877914677200328
37,38,213600.05720006305,4025.1640998758376,False,22,nini,what,True,0.3984375,-0.8556570417437698,0.300390625,12.86342225867635

,trial,start_time,rt,correct,fact_id,question,answer,flipped,alpha,activation,flip_alpha,flip_activation
0,1,27754.898800048973,3688.6990000493824,True,2,I,mimi,False,0.3,-inf,0.3,-inf
1,2,34128.570300061256,inf,True,2,mimi,I,True,0.3,-0.5556527031518672,0.3,-inf
2,3,51978.97659987211,2997.8038002736866,False,14,one,moja,False,0.3,-inf,0.3,-inf
3,4,56095.7563999109,inf,True,14,moja,one,True,0.3,-0.4245213767457171,0.3,-0.4245213767457171
4,5,59356.10380023718,1899.6688998304305,True,15,have,na,False,0.3,-inf,0.3,-inf
5,6,63043.70969999582,1956.051399931312,True,19,hot,moto,False,0.3,-inf,0.3,-inf
6,7,67742.49020032585,1758.5878996178506,True,15,na,have,True,0.3,-0.6379829173476895,0.3,-0.6379829173476895
7,8,71052.09959996863,748.4464999288319,True,19,moto,hot,True,0.3,-0.6241469188906361,0.3,-inf
8,9,73355.4060999304,1833.4256000816824,True,20,word,neno,False,0.3,-inf,0.3,-inf
9,10,77491.9354999438,1326.9370999187229,True,22,what,nini,False,0.3,-inf,0.3,-inf
10,11,81836.76350023597,1631.226500030607,True,20,neno,word,True,0.3,-0.6413611523353802,0.3,-inf
11,12,85189.35579992831,704.8899000510572,True,22,nini,what,True,0.3,-0.6122655740249582,0.3,-inf
12,13,87569.73059987651,2902.273000217974,True,2,mimi,I,True,0.347265625,-0.7670428180047507,0.3,11.972874594361961
13,14,91952.44010025637,1382.0571997202933,True,26,you,ninyi,False,0.3,-inf,0.3,-inf
14,15,96590.41569987312,2749.6167002245784,False,14,moja,one,True,0.349609375,-0.6934006824424633,0.3,-1.1393970924608758
15,16,100872.26610025392,6960.9309998340905,False,26,ninyi,you,True,0.3,-0.6564829319024783,0.3,9.55831613374205
16,17,108963.38890027256,1572.2636999562385,True,43,time,wakati,False,0.3,-inf,0.3,9.55831613374205
17,18,113217.68990019336,2675.886099692434,True,50,tell,kuwaambia,False,0.3,-inf,0.3,-inf
18,19,123858.28910022974,6574.428699910641,False,43,time,wakati,False,0.3,-0.8103056657714841,0.3,-0.810305665771484
19,20,131583.765800111,2873.8191998563707,False,50,tell,kuwaambia,False,0.3,-0.8731515785444098,0.3,-0.8731515785444098
20,21,139182.16279987243,1455.5337000638249,False,15,na,have,True,0.349609375,-0.8513101781615796,0.3,-1.3139550015086372
21,22,142032.3250000365,inf,False,19,moto,hot,True,0.349609375,-0.8511830067032876,0.3,-1.2787203968270013
22,23,145959.87479994074,1590.7729002647104,True,2,mimi,I,True,0.34609375,-0.8179012698749291,0.250390625,-0.7769829167367246
23,24,148870.68000016734,1318.5780998319387,False,20,neno,word,True,0.349609375,-0.8299242643545772,0.3,-1.2615596123170636
24,25,151585.08430002257,2734.480599872768,False,22,nini,what,True,0.349609375,-0.8308592826286727,0.3,-1.2586898173785837
25,26,155686.03420024738,1311.484499834478,False,14,moja,one,True,0.39921875,-0.8301436058445174,0.3,-1.3924710512347434
26,27,158418.59270026907,2281.419099774212,False,26,ninyi,you,True,0.349609375,-0.778196591431479,0.3,-1.2157770910252979
27,28,162111.77150020376,1216.0987998358905,True,52,set,kuweka,False,0.3,-inf,0.3,-inf
28,29,166067.43639986962,2202.1326003596187,True,53,three,tatu,False,0.3,-inf,0.3,-inf
29,30,170065.2610999532,5712.967600207776,False,52,kuweka,set,True,0.3,-0.622083232717048,0.3,-inf
30,31,177273.9118002355,inf,False,53,tatu,three,True,0.3,-0.7249475315932413,0.3,-inf
31,32,182889.68340028077,3872.4384997040033,False,15,have,na,False,0.3937499999999999,-0.7642377097132941,0.3,-1.4449539056116592
32,33,188426.61940027028,inf,False,43,time,wakati,False,0.349609375,-0.8000138259244435,0.349609375,-0.8000138259244435
33,34,194221.72980010512,5025.865499861538,False,14,one,moja,False,0.448046875,-0.8039338998822523,0.3,11.11129118592257
34,35,201023.2572001405,1417.336800135672,True,19,moto,hot,True,0.30000000000000004,-0.8458079603965087,0.287109375,-0.7901730467762637
35,36,203858.6434000172,inf,False,50,tell,kuwaambia,False,0.349609375,-0.8305713044966855,0.349609375,14.29233786158497
36,37,207856.51390021667,inf,False,20,neno,word,True,0.3984375,-0.8396263260916801,0.300390625,-0.7877914677200328
37,38,213600.05720006305,4025.1640998758376,False,22,nini,what,True,0.3984375,-0.8556570417437698,0.300390625,12.86342225867635
38,39,219204.29609995332,5814.663399942219,False,26,ninyi,you,True,0.39921875,-0.8354770939761783,0.32539062499999993,-0.7898316248379429

,trial,start_time,rt,correct,fact_id,question,answer,flipped,alpha,activation,flip_alpha,flip_activation
0,1,27754.898800048973,3688.6990000493824,True,2,I,mimi,False,0.3,-inf,0.3,-inf
1,2,34128.570300061256,inf,True,2,mimi,I,True,0.3,-0.5556527031518672,0.3,-inf
2,3,51978.97659987211,2997.8038002736866,False,14,one,moja,False,0.3,-inf,0.3,-inf
3,4,56095.7563999109,inf,True,14,moja,one,True,0.3,-0.4245213767457171,0.3,-inf
4,5,59356.10380023718,1899.6688998304305,True,15,have,na,False,0.3,-inf,0.3,-inf
5,6,63043.70969999582,1956.051399931312,True,19,hot,moto,False,0.3,-inf,0.3,-inf
6,7,67742.49020032585,1758.5878996178506,True,15,na,have,True,0.3,-0.6379829173476895,0.3,-0.6379829173476895
7,8,71052.09959996863,748.4464999288319,True,19,moto,hot,True,0.3,-0.6241469188906361,0.3,-inf
8,9,73355.4060999304,1833.4256000816824,True,20,word,neno,False,0.3,-inf,0.3,-inf
9,10,77491.9354999438,1326.9370999187229,True,22,what,nini,False,0.3,-inf,0.3,-inf
10,11,81836.76350023597,1631.226500030607,True,20,neno,word,True,0.3,-0.6413611523353802,0.3,-inf
11,12,85189.35579992831,704.8899000510572,True,22,nini,what,True,0.3,-0.6122655740249582,0.3,-inf
12,13,87569.73059987651,2902.273000217974,True,2,mimi,I,True,0.347265625,-0.7670428180047507,0.3,11.972874594361961
13,14,91952.44010025637,1382.0571997202933,True,26,you,ninyi,False,0.3,-inf,0.3,-inf
14,15,96590.41569987312,2749.6167002245784,False,14,moja,one,True,0.349609375,-0.6934006824424633,0.3,-1.1103510288840777
15,16,100872.26610025392,6960.9309998340905,False,26,ninyi,you,True,0.3,-0.6564829319024783,0.3,9.55831613374205
16,17,108963.38890027256,1572.2636999562385,True,43,time,wakati,False,0.3,-inf,0.3,9.55831613374205
17,18,113217.68990019336,2675.886099692434,True,50,tell,kuwaambia,False,0.3,-inf,0.3,-inf
18,19,123858.28910022974,6574.428699910641,False,43,time,wakati,False,0.3,-0.8103056657714841,0.3,-0.810305665771484
19,20,131583.765800111,2873.8191998563707,False,50,tell,kuwaambia,False,0.3,-0.8731515785444098,0.3,-0.8731515785444098
20,21,139182.16279987243,1455.5337000638249,False,15,na,have,True,0.349609375,-0.8513101781615796,0.3,-1.3139550015086372
21,22,142032.3250000365,inf,False,19,moto,hot,True,0.349609375,-0.8511830067032876,0.3,-1.2787203968270013
22,23,145959.87479994074,1590.7729002647104,True,2,mimi,I,True,0.34609375,-0.8179012698749291,0.250390625,-0.7769829167367246
23,24,148870.68000016734,1318.5780998319387,False,20,neno,word,True,0.349609375,-0.8299242643545772,0.3,-1.2615596123170636
24,25,151585.08430002257,2734.480599872768,False,22,nini,what,True,0.349609375,-0.8308592826286727,0.3,-1.2586898173785837
25,26,155686.03420024738,1311.484499834478,False,14,moja,one,True,0.39921875,-0.8301436058445174,0.3394531249999999,-0.7728501450267489
26,27,158418.59270026907,2281.419099774212,False,26,ninyi,you,True,0.349609375,-0.778196591431479,0.3,-1.2157770910252979
27,28,162111.77150020376,1216.0987998358905,True,52,set,kuweka,False,0.3,-inf,0.3,-inf
28,29,166067.43639986962,2202.1326003596187,True,53,three,tatu,False,0.3,-inf,0.3,-inf
29,30,170065.2610999532,5712.967600207776,False,52,kuweka,set,True,0.3,-0.622083232717048,0.3,-inf
30,31,177273.9118002355,inf,False,53,tatu,three,True,0.3,-0.7249475315932413,0.3,-inf
31,32,182889.68340028077,3872.4384997040033,False,15,have,na,False,0.3937499999999999,-0.7642377097132941,0.3,-1.4449539056116592
32,33,188426.61940027028,inf,False,43,time,wakati,False,0.349609375,-0.8000138259244435,0.349609375,-0.8000138259244435
33,34,194221.72980010512,5025.865499861538,False,14,one,moja,False,0.448046875,-0.8039338998822523,0.3394531249999999,-0.6492287646344853
34,35,201023.2572001405,1417.336800135672,True,19,moto,hot,True,0.30000000000000004,-0.8458079603965087,0.287109375,-0.7901730467762637
35,36,203858.6434000172,inf,False,50,tell,kuwaambia,False,0.349609375,-0.8305713044966855,0.349609375,14.29233786158497
36,37,207856.51390021667,inf,False,20,neno,word,True,0.3984375,-0.8396263260916801,0.300390625,-0.7877914677200328
37,38,213600.05720006305,4025.1640998758376,False,22,nini,what,True,0.3984375,-0.8556570417437698,0.300390625,12.86342225867635
38,39,219204.29609995332,5814.663399942219,False,26,ninyi,you,True,0.39921875,-0.8354770939761783,0.32539062499999993,-0.7898316248379429
39,40,226965.6189000234,4270.330599974841,True,14,moja,one,True,0.4484374999999999,-0.8255780436325372,0.38906249999999987,-0.8065659264460904

,trial,start_time,rt,correct,fact_id,question,answer,flipped,alpha,activation,flip_alpha,flip_activation
0,1,27754.898800048973,3688.6990000493824,True,2,I,mimi,False,0.3,-inf,0.3,-inf
1,2,34128.570300061256,inf,True,2,mimi,I,True,0.3,-0.5556527031518672,0.3,-inf
2,3,51978.97659987211,2997.8038002736866,False,14,one,moja,False,0.3,-inf,0.3,-inf
3,4,56095.7563999109,inf,True,14,moja,one,True,0.3,-0.4245213767457171,0.3,-inf
4,5,59356.10380023718,1899.6688998304305,True,15,have,na,False,0.3,-inf,0.3,-inf
5,6,63043.70969999582,1956.051399931312,True,19,hot,moto,False,0.3,-inf,0.3,-inf
6,7,67742.49020032585,1758.5878996178506,True,15,na,have,True,0.3,-0.6379829173476895,0.3,-0.6379829173476895
7,8,71052.09959996863,748.4464999288319,True,19,moto,hot,True,0.3,-0.6241469188906361,0.3,-inf
8,9,73355.4060999304,1833.4256000816824,True,20,word,neno,False,0.3,-inf,0.3,-inf
9,10,77491.9354999438,1326.9370999187229,True,22,what,nini,False,0.3,-inf,0.3,-inf
10,11,81836.76350023597,1631.226500030607,True,20,neno,word,True,0.3,-0.6413611523353802,0.3,-inf
11,12,85189.35579992831,704.8899000510572,True,22,nini,what,True,0.3,-0.6122655740249582,0.3,-inf
12,13,87569.73059987651,2902.273000217974,True,2,mimi,I,True,0.347265625,-0.7670428180047507,0.3,11.972874594361961
13,14,91952.44010025637,1382.0571997202933,True,26,you,ninyi,False,0.3,-inf,0.3,-inf
14,15,96590.41569987312,2749.6167002245784,False,14,moja,one,True,0.349609375,-0.6934006824424633,0.3,-1.1103510288840777
15,16,100872.26610025392,6960.9309998340905,False,26,ninyi,you,True,0.3,-0.6564829319024783,0.3,9.55831613374205
16,17,108963.38890027256,1572.2636999562385,True,43,time,wakati,False,0.3,-inf,0.3,9.55831613374205
17,18,113217.68990019336,2675.886099692434,True,50,tell,kuwaambia,False,0.3,-inf,0.3,-inf
18,19,123858.28910022974,6574.428699910641,False,43,time,wakati,False,0.3,-0.8103056657714841,0.3,-0.810305665771484
19,20,131583.765800111,2873.8191998563707,False,50,tell,kuwaambia,False,0.3,-0.8731515785444098,0.3,-0.8731515785444098
20,21,139182.16279987243,1455.5337000638249,False,15,na,have,True,0.349609375,-0.8513101781615796,0.3,-1.3139550015086372
21,22,142032.3250000365,inf,False,19,moto,hot,True,0.349609375,-0.8511830067032876,0.3,-1.2787203968270013
22,23,145959.87479994074,1590.7729002647104,True,2,mimi,I,True,0.34609375,-0.8179012698749291,0.250390625,-0.7769829167367246
23,24,148870.68000016734,1318.5780998319387,False,20,neno,word,True,0.349609375,-0.8299242643545772,0.3,-1.2615596123170636
24,25,151585.08430002257,2734.480599872768,False,22,nini,what,True,0.349609375,-0.8308592826286727,0.3,-1.2586898173785837
25,26,155686.03420024738,1311.484499834478,False,14,moja,one,True,0.39921875,-0.8301436058445174,0.3394531249999999,-0.7728501450267489
26,27,158418.59270026907,2281.419099774212,False,26,ninyi,you,True,0.349609375,-0.778196591431479,0.3,-1.2157770910252979
27,28,162111.77150020376,1216.0987998358905,True,52,set,kuweka,False,0.3,-inf,0.3,-inf
28,29,166067.43639986962,2202.1326003596187,True,53,three,tatu,False,0.3,-inf,0.3,-inf
29,30,170065.2610999532,5712.967600207776,False,52,kuweka,set,True,0.3,-0.622083232717048,0.3,-inf
30,31,177273.9118002355,inf,False,53,tatu,three,True,0.3,-0.7249475315932413,0.3,-inf
31,32,182889.68340028077,3872.4384997040033,False,15,have,na,False,0.3937499999999999,-0.7642377097132941,0.3,-1.4449539056116592
32,33,188426.61940027028,inf,False,43,time,wakati,False,0.349609375,-0.8000138259244435,0.349609375,-0.8000138259244435
33,34,194221.72980010512,5025.865499861538,False,14,one,moja,False,0.448046875,-0.8039338998822523,0.3394531249999999,-0.6492287646344853
34,35,201023.2572001405,1417.336800135672,True,19,moto,hot,True,0.30000000000000004,-0.8458079603965087,0.287109375,-0.7901730467762637
35,36,203858.6434000172,inf,False,50,tell,kuwaambia,False,0.349609375,-0.8305713044966855,0.349609375,14.29233786158497
36,37,207856.51390021667,inf,False,20,neno,word,True,0.3984375,-0.8396263260916801,0.300390625,-0.7877914677200328
37,38,213600.05720006305,4025.1640998758376,False,22,nini,what,True,0.3984375,-0.8556570417437698,0.300390625,12.86342225867635
38,39,219204.29609995332,5814.663399942219,False,26,ninyi,you,True,0.39921875,-0.8354770939761783,0.32539062499999993,-0.7898316248379429
39,40,226965.6189000234,4270.330599974841,True,14,moja,one,True,0.4484374999999999,-0.8255780436325372,0.38906249999999987,-0.8065659264460904
40,41,233557.23170004785,1620.4093000851572,False,15,have,na,False,0.4433593749999999,-0.8281565149544168,0.300390625,-0.7829364210984072

,trial,start_time,rt,correct,fact_id,question,answer,flipped,alpha,activation,flip_alpha,flip_activation
0,1,27754.898800048973,3688.6990000493824,True,2,I,mimi,False,0.3,-inf,0.3,-inf
1,2,34128.570300061256,inf,True,2,mimi,I,True,0.3,-0.5556527031518672,0.3,-inf
2,3,51978.97659987211,2997.8038002736866,False,14,one,moja,False,0.3,-inf,0.3,-inf
3,4,56095.7563999109,inf,True,14,moja,one,True,0.3,-0.4245213767457171,0.3,-inf
4,5,59356.10380023718,1899.6688998304305,True,15,have,na,False,0.3,-inf,0.3,-inf
5,6,63043.70969999582,1956.051399931312,True,19,hot,moto,False,0.3,-inf,0.3,-inf
6,7,67742.49020032585,1758.5878996178506,True,15,na,have,True,0.3,-0.6379829173476895,0.3,-0.6379829173476895
7,8,71052.09959996863,748.4464999288319,True,19,moto,hot,True,0.3,-0.6241469188906361,0.3,-inf
8,9,73355.4060999304,1833.4256000816824,True,20,word,neno,False,0.3,-inf,0.3,-inf
9,10,77491.9354999438,1326.9370999187229,True,22,what,nini,False,0.3,-inf,0.3,-inf
10,11,81836.76350023597,1631.226500030607,True,20,neno,word,True,0.3,-0.6413611523353802,0.3,-inf
11,12,85189.35579992831,704.8899000510572,True,22,nini,what,True,0.3,-0.6122655740249582,0.3,-inf
12,13,87569.73059987651,2902.273000217974,True,2,mimi,I,True,0.347265625,-0.7670428180047507,0.3,11.972874594361961
13,14,91952.44010025637,1382.0571997202933,True,26,you,ninyi,False,0.3,-inf,0.3,-inf
14,15,96590.41569987312,2749.6167002245784,False,14,moja,one,True,0.349609375,-0.6934006824424633,0.3,-1.1103510288840777
15,16,100872.26610025392,6960.9309998340905,False,26,ninyi,you,True,0.3,-0.6564829319024783,0.3,9.55831613374205
16,17,108963.38890027256,1572.2636999562385,True,43,time,wakati,False,0.3,-inf,0.3,9.55831613374205
17,18,113217.68990019336,2675.886099692434,True,50,tell,kuwaambia,False,0.3,-inf,0.3,-inf
18,19,123858.28910022974,6574.428699910641,False,43,time,wakati,False,0.3,-0.8103056657714841,0.3,-0.810305665771484
19,20,131583.765800111,2873.8191998563707,False,50,tell,kuwaambia,False,0.3,-0.8731515785444098,0.3,-0.8731515785444098
20,21,139182.16279987243,1455.5337000638249,False,15,na,have,True,0.349609375,-0.8513101781615796,0.3,-1.3139550015086372
21,22,142032.3250000365,inf,False,19,moto,hot,True,0.349609375,-0.8511830067032876,0.3,-1.2787203968270013
22,23,145959.87479994074,1590.7729002647104,True,2,mimi,I,True,0.34609375,-0.8179012698749291,0.250390625,-0.7769829167367246
23,24,148870.68000016734,1318.5780998319387,False,20,neno,word,True,0.349609375,-0.8299242643545772,0.3,-1.2615596123170636
24,25,151585.08430002257,2734.480599872768,False,22,nini,what,True,0.349609375,-0.8308592826286727,0.3,-1.2586898173785837
25,26,155686.03420024738,1311.484499834478,False,14,moja,one,True,0.39921875,-0.8301436058445174,0.3394531249999999,-0.7728501450267489
26,27,158418.59270026907,2281.419099774212,False,26,ninyi,you,True,0.349609375,-0.778196591431479,0.3,-1.2157770910252979
27,28,162111.77150020376,1216.0987998358905,True,52,set,kuweka,False,0.3,-inf,0.3,-inf
28,29,166067.43639986962,2202.1326003596187,True,53,three,tatu,False,0.3,-inf,0.3,-inf
29,30,170065.2610999532,5712.967600207776,False,52,kuweka,set,True,0.3,-0.622083232717048,0.3,-inf
30,31,177273.9118002355,inf,False,53,tatu,three,True,0.3,-0.7249475315932413,0.3,-inf
31,32,182889.68340028077,3872.4384997040033,False,15,have,na,False,0.3937499999999999,-0.7642377097132941,0.3,-1.4449539056116592
32,33,188426.61940027028,inf,False,43,time,wakati,False,0.349609375,-0.8000138259244435,0.349609375,-0.8000138259244435
33,34,194221.72980010512,5025.865499861538,False,14,one,moja,False,0.448046875,-0.8039338998822523,0.3394531249999999,-0.6492287646344853
34,35,201023.2572001405,1417.336800135672,True,19,moto,hot,True,0.30000000000000004,-0.8458079603965087,0.287109375,-0.7901730467762637
35,36,203858.6434000172,inf,False,50,tell,kuwaambia,False,0.349609375,-0.8305713044966855,0.349609375,14.29233786158497
36,37,207856.51390021667,inf,False,20,neno,word,True,0.3984375,-0.8396263260916801,0.300390625,-0.7877914677200328
37,38,213600.05720006305,4025.1640998758376,False,22,nini,what,True,0.3984375,-0.8556570417437698,0.300390625,12.86342225867635
38,39,219204.29609995332,5814.663399942219,False,26,ninyi,you,True,0.39921875,-0.8354770939761783,0.32539062499999993,-0.7898316248379429
39,40,226965.6189000234,4270.330599974841,True,14,moja,one,True,0.4484374999999999,-0.8255780436325372,0.38906249999999987,-0.8065659264460904
40,41,233557.23170004785,1620.4093000851572,False,15,have,na,False,0.4433593749999999,-0.8281565149544168,0.300390625,-0.7829364210984072
41,42,237785.9416999854,inf,False,52,kuweka,set,True,0.349609375,-0.8359701349527712,0.3,-1.2646174822264922

,trial,start_time,rt,correct,fact_id,question,answer,flipped,alpha,activation,flip_alpha,flip_activation
0,1,27754.898800048973,3688.6990000493824,True,2,I,mimi,False,0.3,-inf,0.3,-inf
1,2,34128.570300061256,inf,True,2,mimi,I,True,0.3,-0.5556527031518672,0.3,-inf
2,3,51978.97659987211,2997.8038002736866,False,14,one,moja,False,0.3,-inf,0.3,-inf
3,4,56095.7563999109,inf,True,14,moja,one,True,0.3,-0.4245213767457171,0.3,-inf
4,5,59356.10380023718,1899.6688998304305,True,15,have,na,False,0.3,-inf,0.3,-inf
5,6,63043.70969999582,1956.051399931312,True,19,hot,moto,False,0.3,-inf,0.3,-inf
6,7,67742.49020032585,1758.5878996178506,True,15,na,have,True,0.3,-0.6379829173476895,0.3,-0.6379829173476895
7,8,71052.09959996863,748.4464999288319,True,19,moto,hot,True,0.3,-0.6241469188906361,0.3,-inf
8,9,73355.4060999304,1833.4256000816824,True,20,word,neno,False,0.3,-inf,0.3,-inf
9,10,77491.9354999438,1326.9370999187229,True,22,what,nini,False,0.3,-inf,0.3,-inf
10,11,81836.76350023597,1631.226500030607,True,20,neno,word,True,0.3,-0.6413611523353802,0.3,-inf
11,12,85189.35579992831,704.8899000510572,True,22,nini,what,True,0.3,-0.6122655740249582,0.3,-inf
12,13,87569.73059987651,2902.273000217974,True,2,mimi,I,True,0.347265625,-0.7670428180047507,0.3,11.972874594361961
13,14,91952.44010025637,1382.0571997202933,True,26,you,ninyi,False,0.3,-inf,0.3,-inf
14,15,96590.41569987312,2749.6167002245784,False,14,moja,one,True,0.349609375,-0.6934006824424633,0.3,-1.1103510288840777
15,16,100872.26610025392,6960.9309998340905,False,26,ninyi,you,True,0.3,-0.6564829319024783,0.3,9.55831613374205
16,17,108963.38890027256,1572.2636999562385,True,43,time,wakati,False,0.3,-inf,0.3,9.55831613374205
17,18,113217.68990019336,2675.886099692434,True,50,tell,kuwaambia,False,0.3,-inf,0.3,-inf
18,19,123858.28910022974,6574.428699910641,False,43,time,wakati,False,0.3,-0.8103056657714841,0.3,-0.810305665771484
19,20,131583.765800111,2873.8191998563707,False,50,tell,kuwaambia,False,0.3,-0.8731515785444098,0.3,-0.8731515785444098
20,21,139182.16279987243,1455.5337000638249,False,15,na,have,True,0.349609375,-0.8513101781615796,0.3,-1.3139550015086372
21,22,142032.3250000365,inf,False,19,moto,hot,True,0.349609375,-0.8511830067032876,0.3,-1.2787203968270013
22,23,145959.87479994074,1590.7729002647104,True,2,mimi,I,True,0.34609375,-0.8179012698749291,0.250390625,-0.7769829167367246
23,24,148870.68000016734,1318.5780998319387,False,20,neno,word,True,0.349609375,-0.8299242643545772,0.3,-1.2615596123170636
24,25,151585.08430002257,2734.480599872768,False,22,nini,what,True,0.349609375,-0.8308592826286727,0.3,-1.2586898173785837
25,26,155686.03420024738,1311.484499834478,False,14,moja,one,True,0.39921875,-0.8301436058445174,0.3394531249999999,-0.7728501450267489
26,27,158418.59270026907,2281.419099774212,False,26,ninyi,you,True,0.349609375,-0.778196591431479,0.3,-1.2157770910252979
27,28,162111.77150020376,1216.0987998358905,True,52,set,kuweka,False,0.3,-inf,0.3,-inf
28,29,166067.43639986962,2202.1326003596187,True,53,three,tatu,False,0.3,-inf,0.3,-inf
29,30,170065.2610999532,5712.967600207776,False,52,kuweka,set,True,0.3,-0.622083232717048,0.3,-inf
30,31,177273.9118002355,inf,False,53,tatu,three,True,0.3,-0.7249475315932413,0.3,-inf
31,32,182889.68340028077,3872.4384997040033,False,15,have,na,False,0.3937499999999999,-0.7642377097132941,0.3,-1.4449539056116592
