,trial,start_time,rt,correct,fact_id,question,answer,flipped,alpha,activation,flip_alpha,flip_activation
0,1,45566.055300179876,1720.8314000163227,True,2,I,mimi,False,0.3,-inf,0.3,9.766260287910034

,trial,start_time,rt,correct,fact_id,question,answer,flipped,alpha,activation,flip_alpha,flip_activation
0,1,45566.055300179876,1720.8314000163227,True,2,I,mimi,False,0.3,-inf,0.3,-inf
1,2,54487.090000184246,inf,True,2,mimi,I,True,0.3,-0.6565235812869111,0.3,-inf

,trial,start_time,rt,correct,fact_id,question,answer,flipped,alpha,activation,flip_alpha,flip_activation
0,1,45566.055300179876,1720.8314000163227,True,2,I,mimi,False,0.3,-inf,0.3,-inf
1,2,54487.090000184246,inf,True,2,mimi,I,True,0.3,-0.6565235812869111,0.3,-inf
2,3,63431.46040011197,1747.5481999572366,True,14,one,moja,False,0.3,-inf,0.3,-inf

,trial,start_time,rt,correct,fact_id,question,answer,flipped,alpha,activation,flip_alpha,flip_activation
0,1,45566.055300179876,1720.8314000163227,True,2,I,mimi,False,0.3,-inf,0.3,-inf
1,2,54487.090000184246,inf,True,2,mimi,I,True,0.3,-0.6565235812869111,0.3,-inf
2,3,63431.46040011197,1747.5481999572366,True,14,one,moja,False,0.3,-inf,0.3,-inf
3,4,67373.61190002412,339.1372000332922,True,14,moja,one,True,0.3,-0.4115179920712876,0.3,-inf

,trial,start_time,rt,correct,fact_id,question,answer,flipped,alpha,activation,flip_alpha,flip_activation
0,1,45566.055300179876,1720.8314000163227,True,2,I,mimi,False,0.3,-inf,0.3,-inf
1,2,54487.090000184246,inf,True,2,mimi,I,True,0.3,-0.6565235812869111,0.3,-inf
2,3,63431.46040011197,1747.5481999572366,True,14,one,moja,False,0.3,-inf,0.3,-inf
3,4,67373.61190002412,339.1372000332922,True,14,moja,one,True,0.3,-0.4115179920712876,0.3,-inf
4,5,72420.04470014945,1357.3050999548284,True,15,have,na,False,0.3,-inf,0.3,-inf

,trial,start_time,rt,correct,fact_id,question,answer,flipped,alpha,activation,flip_alpha,flip_activation
0,1,45566.055300179876,1720.8314000163227,True,2,I,mimi,False,0.3,-inf,0.3,-inf
1,2,54487.090000184246,inf,True,2,mimi,I,True,0.3,-0.6565235812869111,0.3,-inf
2,3,63431.46040011197,1747.5481999572366,True,14,one,moja,False,0.3,-inf,0.3,-inf
3,4,67373.61190002412,339.1372000332922,True,14,moja,one,True,0.3,-0.4115179920712876,0.3,-inf
4,5,72420.04470014945,1357.3050999548284,True,15,have,na,False,0.3,-inf,0.3,-inf
5,6,76125.19500008784,462.0648000854999,False,19,hot,moto,False,0.3,-inf,0.3,-inf

,trial,start_time,rt,correct,fact_id,question,answer,flipped,alpha,activation,flip_alpha,flip_activation
0,1,45566.055300179876,1720.8314000163227,True,2,I,mimi,False,0.3,-inf,0.3,-inf
1,2,54487.090000184246,inf,True,2,mimi,I,True,0.3,-0.6565235812869111,0.3,-inf
2,3,63431.46040011197,1747.5481999572366,True,14,one,moja,False,0.3,-inf,0.3,-inf
3,4,67373.61190002412,339.1372000332922,True,14,moja,one,True,0.3,-0.4115179920712876,0.3,-inf
4,5,72420.04470014945,1357.3050999548284,True,15,have,na,False,0.3,-inf,0.3,-inf
5,6,76125.19500008784,462.0648000854999,False,19,hot,moto,False,0.3,-inf,0.3,-inf
6,7,78250.784000149,3240.2904999908064,True,15,na,have,True,0.3,-0.5289431405784463,0.3,-inf

,trial,start_time,rt,correct,fact_id,question,answer,flipped,alpha,activation,flip_alpha,flip_activation
0,1,45566.055300179876,1720.8314000163227,True,2,I,mimi,False,0.3,-inf,0.3,-inf
1,2,54487.090000184246,inf,True,2,mimi,I,True,0.3,-0.6565235812869111,0.3,-inf
2,3,63431.46040011197,1747.5481999572366,True,14,one,moja,False,0.3,-inf,0.3,-inf
3,4,67373.61190002412,339.1372000332922,True,14,moja,one,True,0.3,-0.4115179920712876,0.3,-inf
4,5,72420.04470014945,1357.3050999548284,True,15,have,na,False,0.3,-inf,0.3,-inf
5,6,76125.19500008784,462.0648000854999,False,19,hot,moto,False,0.3,-inf,0.3,-inf
6,7,78250.784000149,3240.2904999908064,True,15,na,have,True,0.3,-0.5289431405784463,0.3,-inf
7,8,83155.77010018751,inf,False,19,moto,hot,True,0.3,-0.5850805527102486,0.3,-inf

,trial,start_time,rt,correct,fact_id,question,answer,flipped,alpha,activation,flip_alpha,flip_activation
0,1,45566.055300179876,1720.8314000163227,True,2,I,mimi,False,0.3,-inf,0.3,-inf
1,2,54487.090000184246,inf,True,2,mimi,I,True,0.3,-0.6565235812869111,0.3,-inf
2,3,63431.46040011197,1747.5481999572366,True,14,one,moja,False,0.3,-inf,0.3,-inf
3,4,67373.61190002412,339.1372000332922,True,14,moja,one,True,0.3,-0.4115179920712876,0.3,-inf
4,5,72420.04470014945,1357.3050999548284,True,15,have,na,False,0.3,-inf,0.3,-inf
5,6,76125.19500008784,462.0648000854999,False,19,hot,moto,False,0.3,-inf,0.3,-inf
6,7,78250.784000149,3240.2904999908064,True,15,na,have,True,0.3,-0.5289431405784463,0.3,-inf
7,8,83155.77010018751,inf,False,19,moto,hot,True,0.3,-0.5850805527102486,0.3,-inf
8,9,90142.33639999293,3680.132100125775,True,20,word,neno,False,0.3,-inf,0.3,-inf

,trial,start_time,rt,correct,fact_id,question,answer,flipped,alpha,activation,flip_alpha,flip_activation
0,1,45566.055300179876,1720.8314000163227,True,2,I,mimi,False,0.3,-inf,0.3,-inf
1,2,54487.090000184246,inf,True,2,mimi,I,True,0.3,-0.6565235812869111,0.3,-inf
2,3,63431.46040011197,1747.5481999572366,True,14,one,moja,False,0.3,-inf,0.3,-inf
3,4,67373.61190002412,339.1372000332922,True,14,moja,one,True,0.3,-0.4115179920712876,0.3,-inf
4,5,72420.04470014945,1357.3050999548284,True,15,have,na,False,0.3,-inf,0.3,-inf
5,6,76125.19500008784,462.0648000854999,False,19,hot,moto,False,0.3,-inf,0.3,-inf
6,7,78250.784000149,3240.2904999908064,True,15,na,have,True,0.3,-0.5289431405784463,0.3,-inf
7,8,83155.77010018751,inf,False,19,moto,hot,True,0.3,-0.5850805527102486,0.3,-inf
8,9,90142.33639999293,3680.132100125775,True,20,word,neno,False,0.3,-inf,0.3,-inf
9,10,96990.79940002412,2352.249100105837,True,22,what,nini,False,0.3,-inf,0.3,-inf

,trial,start_time,rt,correct,fact_id,question,answer,flipped,alpha,activation,flip_alpha,flip_activation
0,1,45566.055300179876,1720.8314000163227,True,2,I,mimi,False,0.3,-inf,0.3,-inf
1,2,54487.090000184246,inf,True,2,mimi,I,True,0.3,-0.6565235812869111,0.3,-inf
2,3,63431.46040011197,1747.5481999572366,True,14,one,moja,False,0.3,-inf,0.3,-inf
3,4,67373.61190002412,339.1372000332922,True,14,moja,one,True,0.3,-0.4115179920712876,0.3,-inf
4,5,72420.04470014945,1357.3050999548284,True,15,have,na,False,0.3,-inf,0.3,-inf
5,6,76125.19500008784,462.0648000854999,False,19,hot,moto,False,0.3,-inf,0.3,-inf
6,7,78250.784000149,3240.2904999908064,True,15,na,have,True,0.3,-0.5289431405784463,0.3,-inf
7,8,83155.77010018751,inf,False,19,moto,hot,True,0.3,-0.5850805527102486,0.3,-inf
8,9,90142.33639999293,3680.132100125775,True,20,word,neno,False,0.3,-inf,0.3,-inf
9,10,96990.79940002412,2352.249100105837,True,22,what,nini,False,0.3,-inf,0.3,-inf
10,11,101623.15720017068,3375.331999966875,False,20,neno,word,True,0.3,-0.7322033659826592,0.3,-inf

,trial,start_time,rt,correct,fact_id,question,answer,flipped,alpha,activation,flip_alpha,flip_activation
0,1,45566.055300179876,1720.8314000163227,True,2,I,mimi,False,0.3,-inf,0.3,-inf
1,2,54487.090000184246,inf,True,2,mimi,I,True,0.3,-0.6565235812869111,0.3,-inf
2,3,63431.46040011197,1747.5481999572366,True,14,one,moja,False,0.3,-inf,0.3,-inf
3,4,67373.61190002412,339.1372000332922,True,14,moja,one,True,0.3,-0.4115179920712876,0.3,-inf
4,5,72420.04470014945,1357.3050999548284,True,15,have,na,False,0.3,-inf,0.3,-inf
5,6,76125.19500008784,462.0648000854999,False,19,hot,moto,False,0.3,-inf,0.3,-inf
6,7,78250.784000149,3240.2904999908064,True,15,na,have,True,0.3,-0.5289431405784463,0.3,-inf
7,8,83155.77010018751,inf,False,19,moto,hot,True,0.3,-0.5850805527102486,0.3,-inf
8,9,90142.33639999293,3680.132100125775,True,20,word,neno,False,0.3,-inf,0.3,-inf
9,10,96990.79940002412,2352.249100105837,True,22,what,nini,False,0.3,-inf,0.3,-inf
10,11,101623.15720017068,3375.331999966875,False,20,neno,word,True,0.3,-0.7322033659826592,0.3,-inf
11,12,109051.75180011427,1716.721799923107,True,22,nini,what,True,0.3,-0.7469919479988106,0.3,-inf

,trial,start_time,rt,correct,fact_id,question,answer,flipped,alpha,activation,flip_alpha,flip_activation
0,1,45566.055300179876,1720.8314000163227,True,2,I,mimi,False,0.3,-inf,0.3,-inf
1,2,54487.090000184246,inf,True,2,mimi,I,True,0.3,-0.6565235812869111,0.3,-inf
2,3,63431.46040011197,1747.5481999572366,True,14,one,moja,False,0.3,-inf,0.3,-inf
3,4,67373.61190002412,339.1372000332922,True,14,moja,one,True,0.3,-0.4115179920712876,0.3,-inf
4,5,72420.04470014945,1357.3050999548284,True,15,have,na,False,0.3,-inf,0.3,-inf
5,6,76125.19500008784,462.0648000854999,False,19,hot,moto,False,0.3,-inf,0.3,-inf
6,7,78250.784000149,3240.2904999908064,True,15,na,have,True,0.3,-0.5289431405784463,0.3,-inf
7,8,83155.77010018751,inf,False,19,moto,hot,True,0.3,-0.5850805527102486,0.3,-inf
8,9,90142.33639999293,3680.132100125775,True,20,word,neno,False,0.3,-inf,0.3,-inf
9,10,96990.79940002412,2352.249100105837,True,22,what,nini,False,0.3,-inf,0.3,-inf
10,11,101623.15720017068,3375.331999966875,False,20,neno,word,True,0.3,-0.7322033659826592,0.3,-inf
11,12,109051.75180011427,1716.721799923107,True,22,nini,what,True,0.3,-0.7469919479988106,0.3,-inf
12,13,113310.85740006527,5667.439700104295,False,2,mimi,I,True,0.349609375,-0.7853221698250148,0.3,-1.222363794214714

,trial,start_time,rt,correct,fact_id,question,answer,flipped,alpha,activation,flip_alpha,flip_activation
0,1,45566.055300179876,1720.8314000163227,True,2,I,mimi,False,0.3,-inf,0.3,-inf
1,2,54487.090000184246,inf,True,2,mimi,I,True,0.3,-0.6565235812869111,0.3,-inf
2,3,63431.46040011197,1747.5481999572366,True,14,one,moja,False,0.3,-inf,0.3,-inf
3,4,67373.61190002412,339.1372000332922,True,14,moja,one,True,0.3,-0.4115179920712876,0.3,-inf
4,5,72420.04470014945,1357.3050999548284,True,15,have,na,False,0.3,-inf,0.3,-inf
5,6,76125.19500008784,462.0648000854999,False,19,hot,moto,False,0.3,-inf,0.3,-inf
6,7,78250.784000149,3240.2904999908064,True,15,na,have,True,0.3,-0.5289431405784463,0.3,-inf
7,8,83155.77010018751,inf,False,19,moto,hot,True,0.3,-0.5850805527102486,0.3,-inf
8,9,90142.33639999293,3680.132100125775,True,20,word,neno,False,0.3,-inf,0.3,-inf
9,10,96990.79940002412,2352.249100105837,True,22,what,nini,False,0.3,-inf,0.3,-inf
10,11,101623.15720017068,3375.331999966875,False,20,neno,word,True,0.3,-0.7322033659826592,0.3,-inf
11,12,109051.75180011427,1716.721799923107,True,22,nini,what,True,0.3,-0.7469919479988106,0.3,-inf
12,13,113310.85740006527,5667.439700104295,False,2,mimi,I,True,0.349609375,-0.7853221698250148,0.3,-1.222363794214714
13,14,120694.17770020664,7331.6107999999085,False,14,moja,one,True,0.349609375,-0.7898733127420651,0.3,-1.1928966319981444

,trial,start_time,rt,correct,fact_id,question,answer,flipped,alpha,activation,flip_alpha,flip_activation
0,1,45566.055300179876,1720.8314000163227,True,2,I,mimi,False,0.3,-inf,0.3,-inf
1,2,54487.090000184246,inf,True,2,mimi,I,True,0.3,-0.6565235812869111,0.3,-inf
2,3,63431.46040011197,1747.5481999572366,True,14,one,moja,False,0.3,-inf,0.3,-inf
3,4,67373.61190002412,339.1372000332922,True,14,moja,one,True,0.3,-0.4115179920712876,0.3,-inf
4,5,72420.04470014945,1357.3050999548284,True,15,have,na,False,0.3,-inf,0.3,-inf
5,6,76125.19500008784,462.0648000854999,False,19,hot,moto,False,0.3,-inf,0.3,-inf
6,7,78250.784000149,3240.2904999908064,True,15,na,have,True,0.3,-0.5289431405784463,0.3,-inf
7,8,83155.77010018751,inf,False,19,moto,hot,True,0.3,-0.5850805527102486,0.3,-inf
8,9,90142.33639999293,3680.132100125775,True,20,word,neno,False,0.3,-inf,0.3,-inf
9,10,96990.79940002412,2352.249100105837,True,22,what,nini,False,0.3,-inf,0.3,-inf
10,11,101623.15720017068,3375.331999966875,False,20,neno,word,True,0.3,-0.7322033659826592,0.3,-inf
11,12,109051.75180011427,1716.721799923107,True,22,nini,what,True,0.3,-0.7469919479988106,0.3,-inf
12,13,113310.85740006527,5667.439700104295,False,2,mimi,I,True,0.349609375,-0.7853221698250148,0.3,-1.222363794214714
13,14,120694.17770020664,7331.6107999999085,False,14,moja,one,True,0.349609375,-0.7898733127420651,0.3,-1.1928966319981444
14,15,129807.40649998188,1996.998600196093,False,15,na,have,True,0.349609375,-0.7589572561600579,0.3,-1.1828042009147275

,trial,start_time,rt,correct,fact_id,question,answer,flipped,alpha,activation,flip_alpha,flip_activation
0,1,45566.055300179876,1720.8314000163227,True,2,I,mimi,False,0.3,-inf,0.3,-inf
1,2,54487.090000184246,inf,True,2,mimi,I,True,0.3,-0.6565235812869111,0.3,-inf
2,3,63431.46040011197,1747.5481999572366,True,14,one,moja,False,0.3,-inf,0.3,-inf
3,4,67373.61190002412,339.1372000332922,True,14,moja,one,True,0.3,-0.4115179920712876,0.3,-inf
4,5,72420.04470014945,1357.3050999548284,True,15,have,na,False,0.3,-inf,0.3,-inf
5,6,76125.19500008784,462.0648000854999,False,19,hot,moto,False,0.3,-inf,0.3,-inf
6,7,78250.784000149,3240.2904999908064,True,15,na,have,True,0.3,-0.5289431405784463,0.3,-inf
7,8,83155.77010018751,inf,False,19,moto,hot,True,0.3,-0.5850805527102486,0.3,-inf
8,9,90142.33639999293,3680.132100125775,True,20,word,neno,False,0.3,-inf,0.3,-inf
9,10,96990.79940002412,2352.249100105837,True,22,what,nini,False,0.3,-inf,0.3,-inf
10,11,101623.15720017068,3375.331999966875,False,20,neno,word,True,0.3,-0.7322033659826592,0.3,-inf
11,12,109051.75180011427,1716.721799923107,True,22,nini,what,True,0.3,-0.7469919479988106,0.3,-inf
12,13,113310.85740006527,5667.439700104295,False,2,mimi,I,True,0.349609375,-0.7853221698250148,0.3,-1.222363794214714
13,14,120694.17770020664,7331.6107999999085,False,14,moja,one,True,0.349609375,-0.7898733127420651,0.3,-1.1928966319981444
14,15,129807.40649998188,1996.998600196093,False,15,na,have,True,0.349609375,-0.7589572561600579,0.3,-1.1828042009147275
15,16,133614.2748000566,2565.9928999375547,False,19,moto,hot,True,0.349609375,-0.7440186249501144,0.3,-1.1763453928194814

,trial,start_time,rt,correct,fact_id,question,answer,flipped,alpha,activation,flip_alpha,flip_activation
0,1,45566.055300179876,1720.8314000163227,True,2,I,mimi,False,0.3,-inf,0.3,-inf
1,2,54487.090000184246,inf,True,2,mimi,I,True,0.3,-0.6565235812869111,0.3,-inf
2,3,63431.46040011197,1747.5481999572366,True,14,one,moja,False,0.3,-inf,0.3,-inf
3,4,67373.61190002412,339.1372000332922,True,14,moja,one,True,0.3,-0.4115179920712876,0.3,-inf
4,5,72420.04470014945,1357.3050999548284,True,15,have,na,False,0.3,-inf,0.3,-inf
5,6,76125.19500008784,462.0648000854999,False,19,hot,moto,False,0.3,-inf,0.3,-inf
6,7,78250.784000149,3240.2904999908064,True,15,na,have,True,0.3,-0.5289431405784463,0.3,-inf
7,8,83155.77010018751,inf,False,19,moto,hot,True,0.3,-0.5850805527102486,0.3,-inf
8,9,90142.33639999293,3680.132100125775,True,20,word,neno,False,0.3,-inf,0.3,-inf
9,10,96990.79940002412,2352.249100105837,True,22,what,nini,False,0.3,-inf,0.3,-inf
10,11,101623.15720017068,3375.331999966875,False,20,neno,word,True,0.3,-0.7322033659826592,0.3,-inf
11,12,109051.75180011427,1716.721799923107,True,22,nini,what,True,0.3,-0.7469919479988106,0.3,-inf
12,13,113310.85740006527,5667.439700104295,False,2,mimi,I,True,0.349609375,-0.7853221698250148,0.3,-1.222363794214714
13,14,120694.17770020664,7331.6107999999085,False,14,moja,one,True,0.349609375,-0.7898733127420651,0.3,-1.1928966319981444
14,15,129807.40649998188,1996.998600196093,False,15,na,have,True,0.349609375,-0.7589572561600579,0.3,-1.1828042009147275
15,16,133614.2748000566,2565.9928999375547,False,19,moto,hot,True,0.349609375,-0.7440186249501144,0.3,-1.1763453928194814
16,17,138117.2072000336,1494.290899951011,True,26,you,ninyi,False,0.3,-inf,0.3,-inf

,trial,start_time,rt,correct,fact_id,question,answer,flipped,alpha,activation,flip_alpha,flip_activation
0,1,45566.055300179876,1720.8314000163227,True,2,I,mimi,False,0.3,-inf,0.3,-inf
1,2,54487.090000184246,inf,True,2,mimi,I,True,0.3,-0.6565235812869111,0.3,-inf
2,3,63431.46040011197,1747.5481999572366,True,14,one,moja,False,0.3,-inf,0.3,-inf
3,4,67373.61190002412,339.1372000332922,True,14,moja,one,True,0.3,-0.4115179920712876,0.3,-inf
4,5,72420.04470014945,1357.3050999548284,True,15,have,na,False,0.3,-inf,0.3,-inf
5,6,76125.19500008784,462.0648000854999,False,19,hot,moto,False,0.3,-inf,0.3,-inf
6,7,78250.784000149,3240.2904999908064,True,15,na,have,True,0.3,-0.5289431405784463,0.3,-inf
7,8,83155.77010018751,inf,False,19,moto,hot,True,0.3,-0.5850805527102486,0.3,-inf
8,9,90142.33639999293,3680.132100125775,True,20,word,neno,False,0.3,-inf,0.3,-inf
9,10,96990.79940002412,2352.249100105837,True,22,what,nini,False,0.3,-inf,0.3,-inf
10,11,101623.15720017068,3375.331999966875,False,20,neno,word,True,0.3,-0.7322033659826592,0.3,-inf
11,12,109051.75180011427,1716.721799923107,True,22,nini,what,True,0.3,-0.7469919479988106,0.3,-inf
12,13,113310.85740006527,5667.439700104295,False,2,mimi,I,True,0.349609375,-0.7853221698250148,0.3,-1.222363794214714
13,14,120694.17770020664,7331.6107999999085,False,14,moja,one,True,0.349609375,-0.7898733127420651,0.3,-1.1928966319981444
14,15,129807.40649998188,1996.998600196093,False,15,na,have,True,0.349609375,-0.7589572561600579,0.3,-1.1828042009147275
15,16,133614.2748000566,2565.9928999375547,False,19,moto,hot,True,0.349609375,-0.7440186249501144,0.3,-1.1763453928194814
16,17,138117.2072000336,1494.290899951011,True,26,you,ninyi,False,0.3,-inf,0.3,-inf
17,18,142838.68390019052,2007.9961998853832,True,43,time,wakati,False,0.3,-inf,0.3,-inf

,trial,start_time,rt,correct,fact_id,question,answer,flipped,alpha,activation,flip_alpha,flip_activation
0,1,45566.055300179876,1720.8314000163227,True,2,I,mimi,False,0.3,-inf,0.3,-inf
1,2,54487.090000184246,inf,True,2,mimi,I,True,0.3,-0.6565235812869111,0.3,-inf
2,3,63431.46040011197,1747.5481999572366,True,14,one,moja,False,0.3,-inf,0.3,-inf
3,4,67373.61190002412,339.1372000332922,True,14,moja,one,True,0.3,-0.4115179920712876,0.3,-inf
4,5,72420.04470014945,1357.3050999548284,True,15,have,na,False,0.3,-inf,0.3,-inf
5,6,76125.19500008784,462.0648000854999,False,19,hot,moto,False,0.3,-inf,0.3,-inf
6,7,78250.784000149,3240.2904999908064,True,15,na,have,True,0.3,-0.5289431405784463,0.3,-inf
7,8,83155.77010018751,inf,False,19,moto,hot,True,0.3,-0.5850805527102486,0.3,-inf
8,9,90142.33639999293,3680.132100125775,True,20,word,neno,False,0.3,-inf,0.3,-inf
9,10,96990.79940002412,2352.249100105837,True,22,what,nini,False,0.3,-inf,0.3,-inf
10,11,101623.15720017068,3375.331999966875,False,20,neno,word,True,0.3,-0.7322033659826592,0.3,-inf
11,12,109051.75180011427,1716.721799923107,True,22,nini,what,True,0.3,-0.7469919479988106,0.3,-inf
12,13,113310.85740006527,5667.439700104295,False,2,mimi,I,True,0.349609375,-0.7853221698250148,0.3,-1.222363794214714
13,14,120694.17770020664,7331.6107999999085,False,14,moja,one,True,0.349609375,-0.7898733127420651,0.3,-1.1928966319981444
14,15,129807.40649998188,1996.998600196093,False,15,na,have,True,0.349609375,-0.7589572561600579,0.3,-1.1828042009147275
15,16,133614.2748000566,2565.9928999375547,False,19,moto,hot,True,0.349609375,-0.7440186249501144,0.3,-1.1763453928194814
16,17,138117.2072000336,1494.290899951011,True,26,you,ninyi,False,0.3,-inf,0.3,-inf
17,18,142838.68390019052,2007.9961998853832,True,43,time,wakati,False,0.3,-inf,0.3,-inf
18,19,147986.96200014092,813.5807998478411,True,26,ninyi,you,True,0.3,-0.6868425030567641,0.3,-inf

,trial,start_time,rt,correct,fact_id,question,answer,flipped,alpha,activation,flip_alpha,flip_activation
0,1,45566.055300179876,1720.8314000163227,True,2,I,mimi,False,0.3,-inf,0.3,-inf
1,2,54487.090000184246,inf,True,2,mimi,I,True,0.3,-0.6565235812869111,0.3,-inf
2,3,63431.46040011197,1747.5481999572366,True,14,one,moja,False,0.3,-inf,0.3,-inf
3,4,67373.61190002412,339.1372000332922,True,14,moja,one,True,0.3,-0.4115179920712876,0.3,-inf
4,5,72420.04470014945,1357.3050999548284,True,15,have,na,False,0.3,-inf,0.3,-inf
5,6,76125.19500008784,462.0648000854999,False,19,hot,moto,False,0.3,-inf,0.3,-inf
6,7,78250.784000149,3240.2904999908064,True,15,na,have,True,0.3,-0.5289431405784463,0.3,-inf
7,8,83155.77010018751,inf,False,19,moto,hot,True,0.3,-0.5850805527102486,0.3,-inf
8,9,90142.33639999293,3680.132100125775,True,20,word,neno,False,0.3,-inf,0.3,-inf
9,10,96990.79940002412,2352.249100105837,True,22,what,nini,False,0.3,-inf,0.3,-inf
10,11,101623.15720017068,3375.331999966875,False,20,neno,word,True,0.3,-0.7322033659826592,0.3,-inf
11,12,109051.75180011427,1716.721799923107,True,22,nini,what,True,0.3,-0.7469919479988106,0.3,-inf
12,13,113310.85740006527,5667.439700104295,False,2,mimi,I,True,0.349609375,-0.7853221698250148,0.3,-1.222363794214714
13,14,120694.17770020664,7331.6107999999085,False,14,moja,one,True,0.349609375,-0.7898733127420651,0.3,-1.1928966319981444
14,15,129807.40649998188,1996.998600196093,False,15,na,have,True,0.349609375,-0.7589572561600579,0.3,-1.1828042009147275
15,16,133614.2748000566,2565.9928999375547,False,19,moto,hot,True,0.349609375,-0.7440186249501144,0.3,-1.1763453928194814
16,17,138117.2072000336,1494.290899951011,True,26,you,ninyi,False,0.3,-inf,0.3,-inf
17,18,142838.68390019052,2007.9961998853832,True,43,time,wakati,False,0.3,-inf,0.3,-inf
18,19,147986.96200014092,813.5807998478411,True,26,ninyi,you,True,0.3,-0.6868425030567641,0.3,-inf
19,20,150321.39220018868,776.2765998486431,True,43,wakati,time,True,0.3,-0.6037784395939019,0.3,-inf

,trial,start_time,rt,correct,fact_id,question,answer,flipped,alpha,activation,flip_alpha,flip_activation
0,1,45566.055300179876,1720.8314000163227,True,2,I,mimi,False,0.3,-inf,0.3,-inf
1,2,54487.090000184246,inf,True,2,mimi,I,True,0.3,-0.6565235812869111,0.3,-inf
2,3,63431.46040011197,1747.5481999572366,True,14,one,moja,False,0.3,-inf,0.3,-inf
3,4,67373.61190002412,339.1372000332922,True,14,moja,one,True,0.3,-0.4115179920712876,0.3,-inf
4,5,72420.04470014945,1357.3050999548284,True,15,have,na,False,0.3,-inf,0.3,-inf
5,6,76125.19500008784,462.0648000854999,False,19,hot,moto,False,0.3,-inf,0.3,-inf
6,7,78250.784000149,3240.2904999908064,True,15,na,have,True,0.3,-0.5289431405784463,0.3,-inf
7,8,83155.77010018751,inf,False,19,moto,hot,True,0.3,-0.5850805527102486,0.3,-inf
8,9,90142.33639999293,3680.132100125775,True,20,word,neno,False,0.3,-inf,0.3,-inf
9,10,96990.79940002412,2352.249100105837,True,22,what,nini,False,0.3,-inf,0.3,-inf
10,11,101623.15720017068,3375.331999966875,False,20,neno,word,True,0.3,-0.7322033659826592,0.3,-inf
11,12,109051.75180011427,1716.721799923107,True,22,nini,what,True,0.3,-0.7469919479988106,0.3,-inf
12,13,113310.85740006527,5667.439700104295,False,2,mimi,I,True,0.349609375,-0.7853221698250148,0.3,-1.222363794214714
13,14,120694.17770020664,7331.6107999999085,False,14,moja,one,True,0.349609375,-0.7898733127420651,0.3,-1.1928966319981444
14,15,129807.40649998188,1996.998600196093,False,15,na,have,True,0.349609375,-0.7589572561600579,0.3,-1.1828042009147275
15,16,133614.2748000566,2565.9928999375547,False,19,moto,hot,True,0.349609375,-0.7440186249501144,0.3,-1.1763453928194814
16,17,138117.2072000336,1494.290899951011,True,26,you,ninyi,False,0.3,-inf,0.3,-inf
17,18,142838.68390019052,2007.9961998853832,True,43,time,wakati,False,0.3,-inf,0.3,-inf
18,19,147986.96200014092,813.5807998478411,True,26,ninyi,you,True,0.3,-0.6868425030567641,0.3,-inf
19,20,150321.39220018868,776.2765998486431,True,43,wakati,time,True,0.3,-0.6037784395939019,0.3,-inf
20,21,153694.4512000773,1948.3294999226928,False,20,neno,word,True,0.349609375,-0.7386858347633332,0.3,-1.1857841454078382

,trial,start_time,rt,correct,fact_id,question,answer,flipped,alpha,activation,flip_alpha,flip_activation
0,1,45566.055300179876,1720.8314000163227,True,2,I,mimi,False,0.3,-inf,0.3,9.766260287910034
1,2,54487.090000184246,inf,True,2,mimi,I,True,0.3,-0.6565235812869111,0.3,-0.6565235812869109
2,3,63431.46040011197,1747.5481999572366,True,14,one,moja,False,0.3,-inf,0.3,-inf
3,4,67373.61190002412,339.1372000332922,True,14,moja,one,True,0.3,-0.4115179920712876,0.3,-inf
4,5,72420.04470014945,1357.3050999548284,True,15,have,na,False,0.3,-inf,0.3,-inf
5,6,76125.19500008784,462.0648000854999,False,19,hot,moto,False,0.3,-inf,0.3,-inf
6,7,78250.784000149,3240.2904999908064,True,15,na,have,True,0.3,-0.5289431405784463,0.3,-inf
7,8,83155.77010018751,inf,False,19,moto,hot,True,0.3,-0.5850805527102486,0.3,-inf
8,9,90142.33639999293,3680.132100125775,True,20,word,neno,False,0.3,-inf,0.3,-inf
9,10,96990.79940002412,2352.249100105837,True,22,what,nini,False,0.3,-inf,0.3,-inf
10,11,101623.15720017068,3375.331999966875,False,20,neno,word,True,0.3,-0.7322033659826592,0.3,-inf
11,12,109051.75180011427,1716.721799923107,True,22,nini,what,True,0.3,-0.7469919479988106,0.3,-inf
12,13,113310.85740006527,5667.439700104295,False,2,mimi,I,True,0.349609375,-0.7853221698250148,0.3,-1.2647243205130905
13,14,120694.17770020664,7331.6107999999085,False,14,moja,one,True,0.349609375,-0.7898733127420651,0.3,-1.1928966319981444
14,15,129807.40649998188,1996.998600196093,False,15,na,have,True,0.349609375,-0.7589572561600579,0.3,-1.1828042009147275
15,16,133614.2748000566,2565.9928999375547,False,19,moto,hot,True,0.349609375,-0.7440186249501144,0.3,-1.1763453928194814
16,17,138117.2072000336,1494.290899951011,True,26,you,ninyi,False,0.3,-inf,0.3,-inf
17,18,142838.68390019052,2007.9961998853832,True,43,time,wakati,False,0.3,-inf,0.3,-inf
18,19,147986.96200014092,813.5807998478411,True,26,ninyi,you,True,0.3,-0.6868425030567641,0.3,-inf
19,20,150321.39220018868,776.2765998486431,True,43,wakati,time,True,0.3,-0.6037784395939019,0.3,-inf
20,21,153694.4512000773,1948.3294999226928,False,20,neno,word,True,0.349609375,-0.7386858347633332,0.3,-1.1857841454078382
21,22,157431.802400155,1324.987699976191,False,2,I,mimi,False,0.39921875,-0.7476129635946556,0.3,-1.4151898397064933

,trial,start_time,rt,correct,fact_id,question,answer,flipped,alpha,activation,flip_alpha,flip_activation
0,1,45566.055300179876,1720.8314000163227,True,2,I,mimi,False,0.3,-inf,0.3,9.766260287910034
1,2,54487.090000184246,inf,True,2,mimi,I,True,0.3,-0.6565235812869111,0.3,-0.6565235812869109
2,3,63431.46040011197,1747.5481999572366,True,14,one,moja,False,0.3,-inf,0.3,-inf
3,4,67373.61190002412,339.1372000332922,True,14,moja,one,True,0.3,-0.4115179920712876,0.3,-0.4115179920712876
4,5,72420.04470014945,1357.3050999548284,True,15,have,na,False,0.3,-inf,0.3,-inf
5,6,76125.19500008784,462.0648000854999,False,19,hot,moto,False,0.3,-inf,0.3,-inf
6,7,78250.784000149,3240.2904999908064,True,15,na,have,True,0.3,-0.5289431405784463,0.3,-inf
7,8,83155.77010018751,inf,False,19,moto,hot,True,0.3,-0.5850805527102486,0.3,-inf
8,9,90142.33639999293,3680.132100125775,True,20,word,neno,False,0.3,-inf,0.3,-inf
9,10,96990.79940002412,2352.249100105837,True,22,what,nini,False,0.3,-inf,0.3,-inf
10,11,101623.15720017068,3375.331999966875,False,20,neno,word,True,0.3,-0.7322033659826592,0.3,-inf
11,12,109051.75180011427,1716.721799923107,True,22,nini,what,True,0.3,-0.7469919479988106,0.3,-inf
12,13,113310.85740006527,5667.439700104295,False,2,mimi,I,True,0.349609375,-0.7853221698250148,0.3,-1.2647243205130905
13,14,120694.17770020664,7331.6107999999085,False,14,moja,one,True,0.349609375,-0.7898733127420651,0.3,-1.2142949262035823
14,15,129807.40649998188,1996.998600196093,False,15,na,have,True,0.349609375,-0.7589572561600579,0.3,-1.1828042009147275
15,16,133614.2748000566,2565.9928999375547,False,19,moto,hot,True,0.349609375,-0.7440186249501144,0.3,-1.1763453928194814
16,17,138117.2072000336,1494.290899951011,True,26,you,ninyi,False,0.3,-inf,0.3,-inf
17,18,142838.68390019052,2007.9961998853832,True,43,time,wakati,False,0.3,-inf,0.3,-inf
18,19,147986.96200014092,813.5807998478411,True,26,ninyi,you,True,0.3,-0.6868425030567641,0.3,-inf
19,20,150321.39220018868,776.2765998486431,True,43,wakati,time,True,0.3,-0.6037784395939019,0.3,-inf
20,21,153694.4512000773,1948.3294999226928,False,20,neno,word,True,0.349609375,-0.7386858347633332,0.3,-1.1857841454078382
21,22,157431.802400155,1324.987699976191,False,2,I,mimi,False,0.39921875,-0.7476129635946556,0.3,-1.4151898397064933
22,23,160154.67289998196,3891.5845002047718,True,14,one,moja,False,0.39921875,-0.7309974629997804,0.3,-1.3715560260561064

,trial,start_time,rt,correct,fact_id,question,answer,flipped,alpha,activation,flip_alpha,flip_activation
0,1,45566.055300179876,1720.8314000163227,True,2,I,mimi,False,0.3,-inf,0.3,9.766260287910034
1,2,54487.090000184246,inf,True,2,mimi,I,True,0.3,-0.6565235812869111,0.3,-0.6565235812869109
2,3,63431.46040011197,1747.5481999572366,True,14,one,moja,False,0.3,-inf,0.3,-inf
3,4,67373.61190002412,339.1372000332922,True,14,moja,one,True,0.3,-0.4115179920712876,0.3,-0.4115179920712876
4,5,72420.04470014945,1357.3050999548284,True,15,have,na,False,0.3,-inf,0.3,-inf
5,6,76125.19500008784,462.0648000854999,False,19,hot,moto,False,0.3,-inf,0.3,-inf
6,7,78250.784000149,3240.2904999908064,True,15,na,have,True,0.3,-0.5289431405784463,0.3,-inf
7,8,83155.77010018751,inf,False,19,moto,hot,True,0.3,-0.5850805527102486,0.3,-inf
8,9,90142.33639999293,3680.132100125775,True,20,word,neno,False,0.3,-inf,0.3,-inf
9,10,96990.79940002412,2352.249100105837,True,22,what,nini,False,0.3,-inf,0.3,-inf
10,11,101623.15720017068,3375.331999966875,False,20,neno,word,True,0.3,-0.7322033659826592,0.3,-inf
11,12,109051.75180011427,1716.721799923107,True,22,nini,what,True,0.3,-0.7469919479988106,0.3,-inf
12,13,113310.85740006527,5667.439700104295,False,2,mimi,I,True,0.349609375,-0.7853221698250148,0.3,-1.2647243205130905
13,14,120694.17770020664,7331.6107999999085,False,14,moja,one,True,0.349609375,-0.7898733127420651,0.3,-1.2142949262035823
14,15,129807.40649998188,1996.998600196093,False,15,na,have,True,0.349609375,-0.7589572561600579,0.3,-1.1828042009147275
15,16,133614.2748000566,2565.9928999375547,False,19,moto,hot,True,0.349609375,-0.7440186249501144,0.3,-1.1763453928194814
16,17,138117.2072000336,1494.290899951011,True,26,you,ninyi,False,0.3,-inf,0.3,-inf
17,18,142838.68390019052,2007.9961998853832,True,43,time,wakati,False,0.3,-inf,0.3,-inf
18,19,147986.96200014092,813.5807998478411,True,26,ninyi,you,True,0.3,-0.6868425030567641,0.3,-inf
19,20,150321.39220018868,776.2765998486431,True,43,wakati,time,True,0.3,-0.6037784395939019,0.3,-inf
20,21,153694.4512000773,1948.3294999226928,False,20,neno,word,True,0.349609375,-0.7386858347633332,0.3,-1.1857841454078382
21,22,157431.802400155,1324.987699976191,False,2,I,mimi,False,0.39921875,-0.7476129635946556,0.3,-1.4151898397064933
22,23,160154.67289998196,3891.5845002047718,True,14,one,moja,False,0.39921875,-0.7309974629997804,0.3,-1.3715560260561064
23,24,165944.53990017064,1421.5933999512345,True,22,nini,what,True,0.250390625,-0.7653845029665903,0.3,-1.2123505758527329

,trial,start_time,rt,correct,fact_id,question,answer,flipped,alpha,activation,flip_alpha,flip_activation
0,1,45566.055300179876,1720.8314000163227,True,2,I,mimi,False,0.3,-inf,0.3,9.766260287910034
1,2,54487.090000184246,inf,True,2,mimi,I,True,0.3,-0.6565235812869111,0.3,-0.6565235812869109
2,3,63431.46040011197,1747.5481999572366,True,14,one,moja,False,0.3,-inf,0.3,-inf
3,4,67373.61190002412,339.1372000332922,True,14,moja,one,True,0.3,-0.4115179920712876,0.3,-0.4115179920712876
4,5,72420.04470014945,1357.3050999548284,True,15,have,na,False,0.3,-inf,0.3,-inf
5,6,76125.19500008784,462.0648000854999,False,19,hot,moto,False,0.3,-inf,0.3,-inf
6,7,78250.784000149,3240.2904999908064,True,15,na,have,True,0.3,-0.5289431405784463,0.3,-0.5289431405784463
7,8,83155.77010018751,inf,False,19,moto,hot,True,0.3,-0.5850805527102486,0.3,-inf
8,9,90142.33639999293,3680.132100125775,True,20,word,neno,False,0.3,-inf,0.3,-inf
9,10,96990.79940002412,2352.249100105837,True,22,what,nini,False,0.3,-inf,0.3,-inf
10,11,101623.15720017068,3375.331999966875,False,20,neno,word,True,0.3,-0.7322033659826592,0.3,-inf
11,12,109051.75180011427,1716.721799923107,True,22,nini,what,True,0.3,-0.7469919479988106,0.3,-inf
12,13,113310.85740006527,5667.439700104295,False,2,mimi,I,True,0.349609375,-0.7853221698250148,0.3,-1.2647243205130905
13,14,120694.17770020664,7331.6107999999085,False,14,moja,one,True,0.349609375,-0.7898733127420651,0.3,-1.2142949262035823
14,15,129807.40649998188,1996.998600196093,False,15,na,have,True,0.349609375,-0.7589572561600579,0.3,-1.214947230413875
15,16,133614.2748000566,2565.9928999375547,False,19,moto,hot,True,0.349609375,-0.7440186249501144,0.3,-1.1763453928194814
16,17,138117.2072000336,1494.290899951011,True,26,you,ninyi,False,0.3,-inf,0.3,-inf
17,18,142838.68390019052,2007.9961998853832,True,43,time,wakati,False,0.3,-inf,0.3,-inf
18,19,147986.96200014092,813.5807998478411,True,26,ninyi,you,True,0.3,-0.6868425030567641,0.3,-inf
19,20,150321.39220018868,776.2765998486431,True,43,wakati,time,True,0.3,-0.6037784395939019,0.3,-inf
20,21,153694.4512000773,1948.3294999226928,False,20,neno,word,True,0.349609375,-0.7386858347633332,0.3,-1.1857841454078382
21,22,157431.802400155,1324.987699976191,False,2,I,mimi,False,0.39921875,-0.7476129635946556,0.3,-1.4151898397064933
22,23,160154.67289998196,3891.5845002047718,True,14,one,moja,False,0.39921875,-0.7309974629997804,0.3,-1.3715560260561064
23,24,165944.53990017064,1421.5933999512345,True,22,nini,what,True,0.250390625,-0.7653845029665903,0.3,-1.2123505758527329
24,25,169072.08640011962,1276.1260999832302,True,15,have,na,False,0.34921875,-0.7152920408651622,0.3,11.327728604980132

,trial,start_time,rt,correct,fact_id,question,answer,flipped,alpha,activation,flip_alpha,flip_activation
0,1,45566.055300179876,1720.8314000163227,True,2,I,mimi,False,0.3,-inf,0.3,9.766260287910034
1,2,54487.090000184246,inf,True,2,mimi,I,True,0.3,-0.6565235812869111,0.3,-0.6565235812869109
2,3,63431.46040011197,1747.5481999572366,True,14,one,moja,False,0.3,-inf,0.3,-inf
3,4,67373.61190002412,339.1372000332922,True,14,moja,one,True,0.3,-0.4115179920712876,0.3,-0.4115179920712876
4,5,72420.04470014945,1357.3050999548284,True,15,have,na,False,0.3,-inf,0.3,-inf
5,6,76125.19500008784,462.0648000854999,False,19,hot,moto,False,0.3,-inf,0.3,-inf
6,7,78250.784000149,3240.2904999908064,True,15,na,have,True,0.3,-0.5289431405784463,0.3,-0.5289431405784463
7,8,83155.77010018751,inf,False,19,moto,hot,True,0.3,-0.5850805527102486,0.3,-inf
8,9,90142.33639999293,3680.132100125775,True,20,word,neno,False,0.3,-inf,0.3,-inf
9,10,96990.79940002412,2352.249100105837,True,22,what,nini,False,0.3,-inf,0.3,-inf
10,11,101623.15720017068,3375.331999966875,False,20,neno,word,True,0.3,-0.7322033659826592,0.3,-inf
11,12,109051.75180011427,1716.721799923107,True,22,nini,what,True,0.3,-0.7469919479988106,0.3,-inf
12,13,113310.85740006527,5667.439700104295,False,2,mimi,I,True,0.349609375,-0.7853221698250148,0.3,-1.2647243205130905
13,14,120694.17770020664,7331.6107999999085,False,14,moja,one,True,0.349609375,-0.7898733127420651,0.3,-1.2142949262035823
14,15,129807.40649998188,1996.998600196093,False,15,na,have,True,0.349609375,-0.7589572561600579,0.3,-1.214947230413875
15,16,133614.2748000566,2565.9928999375547,False,19,moto,hot,True,0.349609375,-0.7440186249501144,0.3,-1.1763453928194814
16,17,138117.2072000336,1494.290899951011,True,26,you,ninyi,False,0.3,-inf,0.3,-inf
17,18,142838.68390019052,2007.9961998853832,True,43,time,wakati,False,0.3,-inf,0.3,-inf
18,19,147986.96200014092,813.5807998478411,True,26,ninyi,you,True,0.3,-0.6868425030567641,0.3,-inf
19,20,150321.39220018868,776.2765998486431,True,43,wakati,time,True,0.3,-0.6037784395939019,0.3,-inf
20,21,153694.4512000773,1948.3294999226928,False,20,neno,word,True,0.349609375,-0.7386858347633332,0.3,-1.1857841454078382
21,22,157431.802400155,1324.987699976191,False,2,I,mimi,False,0.39921875,-0.7476129635946556,0.3,-1.4151898397064933
22,23,160154.67289998196,3891.5845002047718,True,14,one,moja,False,0.39921875,-0.7309974629997804,0.3,-1.3715560260561064
23,24,165944.53990017064,1421.5933999512345,True,22,nini,what,True,0.250390625,-0.7653845029665903,0.3,-1.2123505758527329
24,25,169072.08640011962,1276.1260999832302,True,15,have,na,False,0.34921875,-0.7152920408651622,0.3,11.327728604980132
25,26,171919.4016000256,1842.447699978948,True,50,tell,kuwaambia,False,0.3,-inf,0.3,-inf

,trial,start_time,rt,correct,fact_id,question,answer,flipped,alpha,activation,flip_alpha,flip_activation
0,1,45566.055300179876,1720.8314000163227,True,2,I,mimi,False,0.3,-inf,0.3,9.766260287910034
1,2,54487.090000184246,inf,True,2,mimi,I,True,0.3,-0.6565235812869111,0.3,-0.6565235812869109
2,3,63431.46040011197,1747.5481999572366,True,14,one,moja,False,0.3,-inf,0.3,-inf
3,4,67373.61190002412,339.1372000332922,True,14,moja,one,True,0.3,-0.4115179920712876,0.3,-0.4115179920712876
4,5,72420.04470014945,1357.3050999548284,True,15,have,na,False,0.3,-inf,0.3,-inf
5,6,76125.19500008784,462.0648000854999,False,19,hot,moto,False,0.3,-inf,0.3,-inf
6,7,78250.784000149,3240.2904999908064,True,15,na,have,True,0.3,-0.5289431405784463,0.3,-0.5289431405784463
7,8,83155.77010018751,inf,False,19,moto,hot,True,0.3,-0.5850805527102486,0.3,-0.5850805527102486
8,9,90142.33639999293,3680.132100125775,True,20,word,neno,False,0.3,-inf,0.3,-inf
9,10,96990.79940002412,2352.249100105837,True,22,what,nini,False,0.3,-inf,0.3,-inf
10,11,101623.15720017068,3375.331999966875,False,20,neno,word,True,0.3,-0.7322033659826592,0.3,-inf
11,12,109051.75180011427,1716.721799923107,True,22,nini,what,True,0.3,-0.7469919479988106,0.3,-inf
12,13,113310.85740006527,5667.439700104295,False,2,mimi,I,True,0.349609375,-0.7853221698250148,0.3,-1.2647243205130905
13,14,120694.17770020664,7331.6107999999085,False,14,moja,one,True,0.349609375,-0.7898733127420651,0.3,-1.2142949262035823
14,15,129807.40649998188,1996.998600196093,False,15,na,have,True,0.349609375,-0.7589572561600579,0.3,-1.214947230413875
15,16,133614.2748000566,2565.9928999375547,False,19,moto,hot,True,0.349609375,-0.7440186249501144,0.3,-1.2154785039733786
16,17,138117.2072000336,1494.290899951011,True,26,you,ninyi,False,0.3,-inf,0.3,-inf
17,18,142838.68390019052,2007.9961998853832,True,43,time,wakati,False,0.3,-inf,0.3,-inf
18,19,147986.96200014092,813.5807998478411,True,26,ninyi,you,True,0.3,-0.6868425030567641,0.3,-inf
19,20,150321.39220018868,776.2765998486431,True,43,wakati,time,True,0.3,-0.6037784395939019,0.3,-inf
20,21,153694.4512000773,1948.3294999226928,False,20,neno,word,True,0.349609375,-0.7386858347633332,0.3,-1.1857841454078382
21,22,157431.802400155,1324.987699976191,False,2,I,mimi,False,0.39921875,-0.7476129635946556,0.3,-1.4151898397064933
22,23,160154.67289998196,3891.5845002047718,True,14,one,moja,False,0.39921875,-0.7309974629997804,0.3,-1.3715560260561064
23,24,165944.53990017064,1421.5933999512345,True,22,nini,what,True,0.250390625,-0.7653845029665903,0.3,-1.2123505758527329
24,25,169072.08640011962,1276.1260999832302,True,15,have,na,False,0.34921875,-0.7152920408651622,0.3,11.327728604980132
25,26,171919.4016000256,1842.447699978948,True,50,tell,kuwaambia,False,0.3,-inf,0.3,-inf
26,27,177047.96230001375,1330.4620999842882,False,19,hot,moto,False,0.39921875,-0.7366221698469831,0.3,-1.3843066632376417

,trial,start_time,rt,correct,fact_id,question,answer,flipped,alpha,activation,flip_alpha,flip_activation
0,1,45566.055300179876,1720.8314000163227,True,2,I,mimi,False,0.3,-inf,0.3,9.766260287910034
1,2,54487.090000184246,inf,True,2,mimi,I,True,0.3,-0.6565235812869111,0.3,-0.6565235812869109
2,3,63431.46040011197,1747.5481999572366,True,14,one,moja,False,0.3,-inf,0.3,-inf
3,4,67373.61190002412,339.1372000332922,True,14,moja,one,True,0.3,-0.4115179920712876,0.3,-0.4115179920712876
4,5,72420.04470014945,1357.3050999548284,True,15,have,na,False,0.3,-inf,0.3,-inf
5,6,76125.19500008784,462.0648000854999,False,19,hot,moto,False,0.3,-inf,0.3,-inf
6,7,78250.784000149,3240.2904999908064,True,15,na,have,True,0.3,-0.5289431405784463,0.3,-0.5289431405784463
7,8,83155.77010018751,inf,False,19,moto,hot,True,0.3,-0.5850805527102486,0.3,-0.5850805527102486
8,9,90142.33639999293,3680.132100125775,True,20,word,neno,False,0.3,-inf,0.3,-inf
9,10,96990.79940002412,2352.249100105837,True,22,what,nini,False,0.3,-inf,0.3,-inf
10,11,101623.15720017068,3375.331999966875,False,20,neno,word,True,0.3,-0.7322033659826592,0.3,-inf
11,12,109051.75180011427,1716.721799923107,True,22,nini,what,True,0.3,-0.7469919479988106,0.3,-inf
12,13,113310.85740006527,5667.439700104295,False,2,mimi,I,True,0.349609375,-0.7853221698250148,0.3,-1.2647243205130905
13,14,120694.17770020664,7331.6107999999085,False,14,moja,one,True,0.349609375,-0.7898733127420651,0.3,-1.2142949262035823
14,15,129807.40649998188,1996.998600196093,False,15,na,have,True,0.349609375,-0.7589572561600579,0.3,-1.214947230413875
15,16,133614.2748000566,2565.9928999375547,False,19,moto,hot,True,0.349609375,-0.7440186249501144,0.3,-1.2154785039733786
16,17,138117.2072000336,1494.290899951011,True,26,you,ninyi,False,0.3,-inf,0.3,-inf
17,18,142838.68390019052,2007.9961998853832,True,43,time,wakati,False,0.3,-inf,0.3,-inf
18,19,147986.96200014092,813.5807998478411,True,26,ninyi,you,True,0.3,-0.6868425030567641,0.3,-inf
19,20,150321.39220018868,776.2765998486431,True,43,wakati,time,True,0.3,-0.6037784395939019,0.3,-inf
20,21,153694.4512000773,1948.3294999226928,False,20,neno,word,True,0.349609375,-0.7386858347633332,0.3,-1.1857841454078382
21,22,157431.802400155,1324.987699976191,False,2,I,mimi,False,0.39921875,-0.7476129635946556,0.3,-1.4151898397064933
22,23,160154.67289998196,3891.5845002047718,True,14,one,moja,False,0.39921875,-0.7309974629997804,0.3,-1.3715560260561064
23,24,165944.53990017064,1421.5933999512345,True,22,nini,what,True,0.250390625,-0.7653845029665903,0.3,-1.2123505758527329
24,25,169072.08640011962,1276.1260999832302,True,15,have,na,False,0.34921875,-0.7152920408651622,0.3,11.327728604980132
25,26,171919.4016000256,1842.447699978948,True,50,tell,kuwaambia,False,0.3,-inf,0.3,-inf
26,27,177047.96230001375,1330.4620999842882,False,19,hot,moto,False,0.39921875,-0.7366221698469831,0.3,-1.3843066632376417
27,28,180181.02740007453,6531.010299921037,False,50,kuwaambia,tell,True,0.3,-0.633486418877361,0.3,-inf

,trial,start_time,rt,correct,fact_id,question,answer,flipped,alpha,activation,flip_alpha,flip_activation
0,1,45566.055300179876,1720.8314000163227,True,2,I,mimi,False,0.3,-inf,0.3,-inf
1,2,54487.090000184246,inf,True,2,mimi,I,True,0.3,-0.6565235812869111,0.3,-inf
2,3,63431.46040011197,1747.5481999572366,True,14,one,moja,False,0.3,-inf,0.3,-inf
3,4,67373.61190002412,339.1372000332922,True,14,moja,one,True,0.3,-0.4115179920712876,0.3,-0.4115179920712876
4,5,72420.04470014945,1357.3050999548284,True,15,have,na,False,0.3,-inf,0.3,-inf
5,6,76125.19500008784,462.0648000854999,False,19,hot,moto,False,0.3,-inf,0.3,-inf
6,7,78250.784000149,3240.2904999908064,True,15,na,have,True,0.3,-0.5289431405784463,0.3,-0.5289431405784463
7,8,83155.77010018751,inf,False,19,moto,hot,True,0.3,-0.5850805527102486,0.3,-0.5850805527102486
8,9,90142.33639999293,3680.132100125775,True,20,word,neno,False,0.3,-inf,0.3,-inf
9,10,96990.79940002412,2352.249100105837,True,22,what,nini,False,0.3,-inf,0.3,-inf
10,11,101623.15720017068,3375.331999966875,False,20,neno,word,True,0.3,-0.7322033659826592,0.3,-inf
11,12,109051.75180011427,1716.721799923107,True,22,nini,what,True,0.3,-0.7469919479988106,0.3,-inf
12,13,113310.85740006527,5667.439700104295,False,2,mimi,I,True,0.349609375,-0.7853221698250148,0.3,-1.222363794214714
13,14,120694.17770020664,7331.6107999999085,False,14,moja,one,True,0.349609375,-0.7898733127420651,0.3,-1.2142949262035823
14,15,129807.40649998188,1996.998600196093,False,15,na,have,True,0.349609375,-0.7589572561600579,0.3,-1.214947230413875
15,16,133614.2748000566,2565.9928999375547,False,19,moto,hot,True,0.349609375,-0.7440186249501144,0.3,-1.2154785039733786
16,17,138117.2072000336,1494.290899951011,True,26,you,ninyi,False,0.3,-inf,0.3,-inf
17,18,142838.68390019052,2007.9961998853832,True,43,time,wakati,False,0.3,-inf,0.3,-inf
18,19,147986.96200014092,813.5807998478411,True,26,ninyi,you,True,0.3,-0.6868425030567641,0.3,-inf
19,20,150321.39220018868,776.2765998486431,True,43,wakati,time,True,0.3,-0.6037784395939019,0.3,-inf
20,21,153694.4512000773,1948.3294999226928,False,20,neno,word,True,0.349609375,-0.7386858347633332,0.3,-1.1857841454078382
21,22,157431.802400155,1324.987699976191,False,2,I,mimi,False,0.39921875,-0.7476129635946556,0.3,-0.7093679772579465
22,23,160154.67289998196,3891.5845002047718,True,14,one,moja,False,0.39921875,-0.7309974629997804,0.3,-1.3715560260561064
23,24,165944.53990017064,1421.5933999512345,True,22,nini,what,True,0.250390625,-0.7653845029665903,0.3,-1.2123505758527329
24,25,169072.08640011962,1276.1260999832302,True,15,have,na,False,0.34921875,-0.7152920408651622,0.3,11.327728604980132
25,26,171919.4016000256,1842.447699978948,True,50,tell,kuwaambia,False,0.3,-inf,0.3,-inf
26,27,177047.96230001375,1330.4620999842882,False,19,hot,moto,False,0.39921875,-0.7366221698469831,0.3,-1.3843066632376417
27,28,180181.02740007453,6531.010299921037,False,50,kuwaambia,tell,True,0.3,-0.633486418877361,0.3,-inf
28,29,188354.9601000268,1660.4000001680106,False,2,mimi,I,True,0.4488281249999999,-0.7106275618144487,0.32539062499999993,-0.8454679497235684

,trial,start_time,rt,correct,fact_id,question,answer,flipped,alpha,activation,flip_alpha,flip_activation
0,1,45566.055300179876,1720.8314000163227,True,2,I,mimi,False,0.3,-inf,0.3,-inf
1,2,54487.090000184246,inf,True,2,mimi,I,True,0.3,-0.6565235812869111,0.3,-inf
2,3,63431.46040011197,1747.5481999572366,True,14,one,moja,False,0.3,-inf,0.3,-inf
3,4,67373.61190002412,339.1372000332922,True,14,moja,one,True,0.3,-0.4115179920712876,0.3,-inf
4,5,72420.04470014945,1357.3050999548284,True,15,have,na,False,0.3,-inf,0.3,-inf
5,6,76125.19500008784,462.0648000854999,False,19,hot,moto,False,0.3,-inf,0.3,-inf
6,7,78250.784000149,3240.2904999908064,True,15,na,have,True,0.3,-0.5289431405784463,0.3,-0.5289431405784463
7,8,83155.77010018751,inf,False,19,moto,hot,True,0.3,-0.5850805527102486,0.3,-0.5850805527102486
8,9,90142.33639999293,3680.132100125775,True,20,word,neno,False,0.3,-inf,0.3,-inf
9,10,96990.79940002412,2352.249100105837,True,22,what,nini,False,0.3,-inf,0.3,-inf
10,11,101623.15720017068,3375.331999966875,False,20,neno,word,True,0.3,-0.7322033659826592,0.3,-inf
11,12,109051.75180011427,1716.721799923107,True,22,nini,what,True,0.3,-0.7469919479988106,0.3,-inf
12,13,113310.85740006527,5667.439700104295,False,2,mimi,I,True,0.349609375,-0.7853221698250148,0.3,-1.222363794214714
13,14,120694.17770020664,7331.6107999999085,False,14,moja,one,True,0.349609375,-0.7898733127420651,0.3,-1.1928966319981444
14,15,129807.40649998188,1996.998600196093,False,15,na,have,True,0.349609375,-0.7589572561600579,0.3,-1.214947230413875
15,16,133614.2748000566,2565.9928999375547,False,19,moto,hot,True,0.349609375,-0.7440186249501144,0.3,-1.2154785039733786
16,17,138117.2072000336,1494.290899951011,True,26,you,ninyi,False,0.3,-inf,0.3,-inf
17,18,142838.68390019052,2007.9961998853832,True,43,time,wakati,False,0.3,-inf,0.3,-inf
18,19,147986.96200014092,813.5807998478411,True,26,ninyi,you,True,0.3,-0.6868425030567641,0.3,-inf
19,20,150321.39220018868,776.2765998486431,True,43,wakati,time,True,0.3,-0.6037784395939019,0.3,-inf
20,21,153694.4512000773,1948.3294999226928,False,20,neno,word,True,0.349609375,-0.7386858347633332,0.3,-1.1857841454078382
21,22,157431.802400155,1324.987699976191,False,2,I,mimi,False,0.39921875,-0.7476129635946556,0.3,-0.7093679772579465
22,23,160154.67289998196,3891.5845002047718,True,14,one,moja,False,0.39921875,-0.7309974629997804,0.3,-0.6769812068954071
23,24,165944.53990017064,1421.5933999512345,True,22,nini,what,True,0.250390625,-0.7653845029665903,0.3,-1.2123505758527329
24,25,169072.08640011962,1276.1260999832302,True,15,have,na,False,0.34921875,-0.7152920408651622,0.3,11.327728604980132
25,26,171919.4016000256,1842.447699978948,True,50,tell,kuwaambia,False,0.3,-inf,0.3,-inf
26,27,177047.96230001375,1330.4620999842882,False,19,hot,moto,False,0.39921875,-0.7366221698469831,0.3,-1.3843066632376417
27,28,180181.02740007453,6531.010299921037,False,50,kuwaambia,tell,True,0.3,-0.633486418877361,0.3,-inf
28,29,188354.9601000268,1660.4000001680106,False,2,mimi,I,True,0.4488281249999999,-0.7106275618144487,0.32539062499999993,-0.8454679497235684
29,30,192097.95910003595,588.2974001578987,False,14,moja,one,True,0.4488281249999999,-0.7200300077469421,0.32539062499999993,-0.8298141018870249

,trial,start_time,rt,correct,fact_id,question,answer,flipped,alpha,activation,flip_alpha,flip_activation
0,1,45566.055300179876,1720.8314000163227,True,2,I,mimi,False,0.3,-inf,0.3,-inf
1,2,54487.090000184246,inf,True,2,mimi,I,True,0.3,-0.6565235812869111,0.3,-inf
2,3,63431.46040011197,1747.5481999572366,True,14,one,moja,False,0.3,-inf,0.3,-inf
3,4,67373.61190002412,339.1372000332922,True,14,moja,one,True,0.3,-0.4115179920712876,0.3,-inf
4,5,72420.04470014945,1357.3050999548284,True,15,have,na,False,0.3,-inf,0.3,-inf
5,6,76125.19500008784,462.0648000854999,False,19,hot,moto,False,0.3,-inf,0.3,-inf
6,7,78250.784000149,3240.2904999908064,True,15,na,have,True,0.3,-0.5289431405784463,0.3,-0.5289431405784463
7,8,83155.77010018751,inf,False,19,moto,hot,True,0.3,-0.5850805527102486,0.3,-0.5850805527102486
8,9,90142.33639999293,3680.132100125775,True,20,word,neno,False,0.3,-inf,0.3,-inf
9,10,96990.79940002412,2352.249100105837,True,22,what,nini,False,0.3,-inf,0.3,-inf
10,11,101623.15720017068,3375.331999966875,False,20,neno,word,True,0.3,-0.7322033659826592,0.3,-0.7322033659826592
11,12,109051.75180011427,1716.721799923107,True,22,nini,what,True,0.3,-0.7469919479988106,0.3,-inf
12,13,113310.85740006527,5667.439700104295,False,2,mimi,I,True,0.349609375,-0.7853221698250148,0.3,-1.222363794214714
13,14,120694.17770020664,7331.6107999999085,False,14,moja,one,True,0.349609375,-0.7898733127420651,0.3,-1.1928966319981444
14,15,129807.40649998188,1996.998600196093,False,15,na,have,True,0.349609375,-0.7589572561600579,0.3,-1.214947230413875
15,16,133614.2748000566,2565.9928999375547,False,19,moto,hot,True,0.349609375,-0.7440186249501144,0.3,-1.2154785039733786
16,17,138117.2072000336,1494.290899951011,True,26,you,ninyi,False,0.3,-inf,0.3,-inf
17,18,142838.68390019052,2007.9961998853832,True,43,time,wakati,False,0.3,-inf,0.3,-inf
18,19,147986.96200014092,813.5807998478411,True,26,ninyi,you,True,0.3,-0.6868425030567641,0.3,-inf
19,20,150321.39220018868,776.2765998486431,True,43,wakati,time,True,0.3,-0.6037784395939019,0.3,-inf
20,21,153694.4512000773,1948.3294999226928,False,20,neno,word,True,0.349609375,-0.7386858347633332,0.3,-1.24555808244515
21,22,157431.802400155,1324.987699976191,False,2,I,mimi,False,0.39921875,-0.7476129635946556,0.3,-0.7093679772579465
22,23,160154.67289998196,3891.5845002047718,True,14,one,moja,False,0.39921875,-0.7309974629997804,0.3,-0.6769812068954071
23,24,165944.53990017064,1421.5933999512345,True,22,nini,what,True,0.250390625,-0.7653845029665903,0.3,-1.2123505758527329
24,25,169072.08640011962,1276.1260999832302,True,15,have,na,False,0.34921875,-0.7152920408651622,0.3,11.327728604980132
25,26,171919.4016000256,1842.447699978948,True,50,tell,kuwaambia,False,0.3,-inf,0.3,-inf
26,27,177047.96230001375,1330.4620999842882,False,19,hot,moto,False,0.39921875,-0.7366221698469831,0.3,-1.3843066632376417
27,28,180181.02740007453,6531.010299921037,False,50,kuwaambia,tell,True,0.3,-0.633486418877361,0.3,-inf
28,29,188354.9601000268,1660.4000001680106,False,2,mimi,I,True,0.4488281249999999,-0.7106275618144487,0.32539062499999993,-0.8454679497235684
29,30,192097.95910003595,588.2974001578987,False,14,moja,one,True,0.4488281249999999,-0.7200300077469421,0.32539062499999993,-0.8298141018870249
30,31,199622.83730017953,2635.763499885797,False,20,word,neno,False,0.39921875,-0.7428077768545628,0.3,-1.4087239378285814

,trial,start_time,rt,correct,fact_id,question,answer,flipped,alpha,activation,flip_alpha,flip_activation
0,1,45566.055300179876,1720.8314000163227,True,2,I,mimi,False,0.3,-inf,0.3,-inf
1,2,54487.090000184246,inf,True,2,mimi,I,True,0.3,-0.6565235812869111,0.3,-inf
2,3,63431.46040011197,1747.5481999572366,True,14,one,moja,False,0.3,-inf,0.3,-inf
3,4,67373.61190002412,339.1372000332922,True,14,moja,one,True,0.3,-0.4115179920712876,0.3,-inf
4,5,72420.04470014945,1357.3050999548284,True,15,have,na,False,0.3,-inf,0.3,-inf
5,6,76125.19500008784,462.0648000854999,False,19,hot,moto,False,0.3,-inf,0.3,-inf
6,7,78250.784000149,3240.2904999908064,True,15,na,have,True,0.3,-0.5289431405784463,0.3,-0.5289431405784463
7,8,83155.77010018751,inf,False,19,moto,hot,True,0.3,-0.5850805527102486,0.3,-0.5850805527102486
8,9,90142.33639999293,3680.132100125775,True,20,word,neno,False,0.3,-inf,0.3,-inf
9,10,96990.79940002412,2352.249100105837,True,22,what,nini,False,0.3,-inf,0.3,-inf
10,11,101623.15720017068,3375.331999966875,False,20,neno,word,True,0.3,-0.7322033659826592,0.3,-0.7322033659826592
11,12,109051.75180011427,1716.721799923107,True,22,nini,what,True,0.3,-0.7469919479988106,0.3,-inf
12,13,113310.85740006527,5667.439700104295,False,2,mimi,I,True,0.349609375,-0.7853221698250148,0.3,-1.222363794214714
13,14,120694.17770020664,7331.6107999999085,False,14,moja,one,True,0.349609375,-0.7898733127420651,0.3,-1.1928966319981444
14,15,129807.40649998188,1996.998600196093,False,15,na,have,True,0.349609375,-0.7589572561600579,0.3,-1.214947230413875
15,16,133614.2748000566,2565.9928999375547,False,19,moto,hot,True,0.349609375,-0.7440186249501144,0.3,-1.2154785039733786
16,17,138117.2072000336,1494.290899951011,True,26,you,ninyi,False,0.3,-inf,0.3,-inf
17,18,142838.68390019052,2007.9961998853832,True,43,time,wakati,False,0.3,-inf,0.3,-inf
18,19,147986.96200014092,813.5807998478411,True,26,ninyi,you,True,0.3,-0.6868425030567641,0.3,-inf
19,20,150321.39220018868,776.2765998486431,True,43,wakati,time,True,0.3,-0.6037784395939019,0.3,-inf
20,21,153694.4512000773,1948.3294999226928,False,20,neno,word,True,0.349609375,-0.7386858347633332,0.3,-1.24555808244515
21,22,157431.802400155,1324.987699976191,False,2,I,mimi,False,0.39921875,-0.7476129635946556,0.3,-0.7093679772579465
22,23,160154.67289998196,3891.5845002047718,True,14,one,moja,False,0.39921875,-0.7309974629997804,0.3,-0.6769812068954071
23,24,165944.53990017064,1421.5933999512345,True,22,nini,what,True,0.250390625,-0.7653845029665903,0.3,-1.2123505758527329
24,25,169072.08640011962,1276.1260999832302,True,15,have,na,False,0.34921875,-0.7152920408651622,0.3,11.327728604980132
25,26,171919.4016000256,1842.447699978948,True,50,tell,kuwaambia,False,0.3,-inf,0.3,-inf
26,27,177047.96230001375,1330.4620999842882,False,19,hot,moto,False,0.39921875,-0.7366221698469831,0.3,-1.3843066632376417
27,28,180181.02740007453,6531.010299921037,False,50,kuwaambia,tell,True,0.3,-0.633486418877361,0.3,-inf
28,29,188354.9601000268,1660.4000001680106,False,2,mimi,I,True,0.4488281249999999,-0.7106275618144487,0.32539062499999993,-0.8454679497235684
29,30,192097.95910003595,588.2974001578987,False,14,moja,one,True,0.4488281249999999,-0.7200300077469421,0.32539062499999993,-0.8298141018870249
30,31,199622.83730017953,2635.763499885797,False,20,word,neno,False,0.39921875,-0.7428077768545628,0.3,-1.4087239378285814
31,32,204398.32420018504,1397.8868999984115,True,43,wakati,time,True,0.250390625,-0.7643932368146344,0.3,11.704036113867147

,trial,start_time,rt,correct,fact_id,question,answer,flipped,alpha,activation,flip_alpha,flip_activation
0,1,45566.055300179876,1720.8314000163227,True,2,I,mimi,False,0.3,-inf,0.3,-inf
1,2,54487.090000184246,inf,True,2,mimi,I,True,0.3,-0.6565235812869111,0.3,-inf
2,3,63431.46040011197,1747.5481999572366,True,14,one,moja,False,0.3,-inf,0.3,-inf
3,4,67373.61190002412,339.1372000332922,True,14,moja,one,True,0.3,-0.4115179920712876,0.3,-inf
4,5,72420.04470014945,1357.3050999548284,True,15,have,na,False,0.3,-inf,0.3,-inf
5,6,76125.19500008784,462.0648000854999,False,19,hot,moto,False,0.3,-inf,0.3,-inf
6,7,78250.784000149,3240.2904999908064,True,15,na,have,True,0.3,-0.5289431405784463,0.3,-0.5289431405784463
7,8,83155.77010018751,inf,False,19,moto,hot,True,0.3,-0.5850805527102486,0.3,-0.5850805527102486
8,9,90142.33639999293,3680.132100125775,True,20,word,neno,False,0.3,-inf,0.3,-inf
9,10,96990.79940002412,2352.249100105837,True,22,what,nini,False,0.3,-inf,0.3,-inf
10,11,101623.15720017068,3375.331999966875,False,20,neno,word,True,0.3,-0.7322033659826592,0.3,-0.7322033659826592
11,12,109051.75180011427,1716.721799923107,True,22,nini,what,True,0.3,-0.7469919479988106,0.3,-inf
12,13,113310.85740006527,5667.439700104295,False,2,mimi,I,True,0.349609375,-0.7853221698250148,0.3,-1.222363794214714
13,14,120694.17770020664,7331.6107999999085,False,14,moja,one,True,0.349609375,-0.7898733127420651,0.3,-1.1928966319981444
14,15,129807.40649998188,1996.998600196093,False,15,na,have,True,0.349609375,-0.7589572561600579,0.3,-1.214947230413875
15,16,133614.2748000566,2565.9928999375547,False,19,moto,hot,True,0.349609375,-0.7440186249501144,0.3,-1.2154785039733786
16,17,138117.2072000336,1494.290899951011,True,26,you,ninyi,False,0.3,-inf,0.3,-inf
17,18,142838.68390019052,2007.9961998853832,True,43,time,wakati,False,0.3,-inf,0.3,-inf
18,19,147986.96200014092,813.5807998478411,True,26,ninyi,you,True,0.3,-0.6868425030567641,0.3,-inf
19,20,150321.39220018868,776.2765998486431,True,43,wakati,time,True,0.3,-0.6037784395939019,0.3,-inf
20,21,153694.4512000773,1948.3294999226928,False,20,neno,word,True,0.349609375,-0.7386858347633332,0.3,-1.24555808244515
21,22,157431.802400155,1324.987699976191,False,2,I,mimi,False,0.39921875,-0.7476129635946556,0.3,-0.7093679772579465
22,23,160154.67289998196,3891.5845002047718,True,14,one,moja,False,0.39921875,-0.7309974629997804,0.3,-0.6769812068954071
23,24,165944.53990017064,1421.5933999512345,True,22,nini,what,True,0.250390625,-0.7653845029665903,0.3,-1.2123505758527329
24,25,169072.08640011962,1276.1260999832302,True,15,have,na,False,0.34921875,-0.7152920408651622,0.3,11.327728604980132
25,26,171919.4016000256,1842.447699978948,True,50,tell,kuwaambia,False,0.3,-inf,0.3,-inf
26,27,177047.96230001375,1330.4620999842882,False,19,hot,moto,False,0.39921875,-0.7366221698469831,0.3,-1.3843066632376417
27,28,180181.02740007453,6531.010299921037,False,50,kuwaambia,tell,True,0.3,-0.633486418877361,0.3,-inf
28,29,188354.9601000268,1660.4000001680106,False,2,mimi,I,True,0.4488281249999999,-0.7106275618144487,0.32539062499999993,-0.8454679497235684
29,30,192097.95910003595,588.2974001578987,False,14,moja,one,True,0.4488281249999999,-0.7200300077469421,0.32539062499999993,-0.8298141018870249
30,31,199622.83730017953,2635.763499885797,False,20,word,neno,False,0.39921875,-0.7428077768545628,0.3,-1.4087239378285814
31,32,204398.32420018504,1397.8868999984115,True,43,wakati,time,True,0.250390625,-0.7643932368146344,0.3,11.704036113867147
32,33,207510.5377000291,3525.5257000681013,False,26,ninyi,you,True,0.349609375,-0.7856589459606959,0.3,-1.225911739296999

,trial,start_time,rt,correct,fact_id,question,answer,flipped,alpha,activation,flip_alpha,flip_activation
0,1,45566.055300179876,1720.8314000163227,True,2,I,mimi,False,0.3,-inf,0.3,9.766260287910034
1,2,54487.090000184246,inf,True,2,mimi,I,True,0.3,-0.6565235812869111,0.3,-0.6565235812869109
2,3,63431.46040011197,1747.5481999572366,True,14,one,moja,False,0.3,-inf,0.3,-inf
3,4,67373.61190002412,339.1372000332922,True,14,moja,one,True,0.3,-0.4115179920712876,0.3,-inf
4,5,72420.04470014945,1357.3050999548284,True,15,have,na,False,0.3,-inf,0.3,-inf
5,6,76125.19500008784,462.0648000854999,False,19,hot,moto,False,0.3,-inf,0.3,-inf
6,7,78250.784000149,3240.2904999908064,True,15,na,have,True,0.3,-0.5289431405784463,0.3,-0.5289431405784463
7,8,83155.77010018751,inf,False,19,moto,hot,True,0.3,-0.5850805527102486,0.3,-0.5850805527102486
8,9,90142.33639999293,3680.132100125775,True,20,word,neno,False,0.3,-inf,0.3,-inf
9,10,96990.79940002412,2352.249100105837,True,22,what,nini,False,0.3,-inf,0.3,-inf
10,11,101623.15720017068,3375.331999966875,False,20,neno,word,True,0.3,-0.7322033659826592,0.3,-0.7322033659826592
11,12,109051.75180011427,1716.721799923107,True,22,nini,what,True,0.3,-0.7469919479988106,0.3,-inf
12,13,113310.85740006527,5667.439700104295,False,2,mimi,I,True,0.349609375,-0.7853221698250148,0.3,-1.2647243205130905
13,14,120694.17770020664,7331.6107999999085,False,14,moja,one,True,0.349609375,-0.7898733127420651,0.3,-1.1928966319981444
14,15,129807.40649998188,1996.998600196093,False,15,na,have,True,0.349609375,-0.7589572561600579,0.3,-1.214947230413875
15,16,133614.2748000566,2565.9928999375547,False,19,moto,hot,True,0.349609375,-0.7440186249501144,0.3,-1.2154785039733786
16,17,138117.2072000336,1494.290899951011,True,26,you,ninyi,False,0.3,-inf,0.3,-inf
17,18,142838.68390019052,2007.9961998853832,True,43,time,wakati,False,0.3,-inf,0.3,-inf
18,19,147986.96200014092,813.5807998478411,True,26,ninyi,you,True,0.3,-0.6868425030567641,0.3,-inf
19,20,150321.39220018868,776.2765998486431,True,43,wakati,time,True,0.3,-0.6037784395939019,0.3,-inf
20,21,153694.4512000773,1948.3294999226928,False,20,neno,word,True,0.349609375,-0.7386858347633332,0.3,-1.24555808244515
21,22,157431.802400155,1324.987699976191,False,2,I,mimi,False,0.39921875,-0.7476129635946556,0.3,-1.4151898397064933
22,23,160154.67289998196,3891.5845002047718,True,14,one,moja,False,0.39921875,-0.7309974629997804,0.3,-0.6769812068954071
23,24,165944.53990017064,1421.5933999512345,True,22,nini,what,True,0.250390625,-0.7653845029665903,0.3,-1.2123505758527329
24,25,169072.08640011962,1276.1260999832302,True,15,have,na,False,0.34921875,-0.7152920408651622,0.3,11.327728604980132
25,26,171919.4016000256,1842.447699978948,True,50,tell,kuwaambia,False,0.3,-inf,0.3,-inf
26,27,177047.96230001375,1330.4620999842882,False,19,hot,moto,False,0.39921875,-0.7366221698469831,0.3,-1.3843066632376417
27,28,180181.02740007453,6531.010299921037,False,50,kuwaambia,tell,True,0.3,-0.633486418877361,0.3,-inf
28,29,188354.9601000268,1660.4000001680106,False,2,mimi,I,True,0.4488281249999999,-0.7106275618144487,0.3,-0.6621345450257586
29,30,192097.95910003595,588.2974001578987,False,14,moja,one,True,0.4488281249999999,-0.7200300077469421,0.32539062499999993,-0.8298141018870249
30,31,199622.83730017953,2635.763499885797,False,20,word,neno,False,0.39921875,-0.7428077768545628,0.3,-1.4087239378285814
31,32,204398.32420018504,1397.8868999984115,True,43,wakati,time,True,0.250390625,-0.7643932368146344,0.3,11.704036113867147
32,33,207510.5377000291,3525.5257000681013,False,26,ninyi,you,True,0.349609375,-0.7856589459606959,0.3,-1.225911739296999
33,34,214423.63140010272,1090.0850999169052,False,2,I,mimi,False,0.4742187499999999,-0.7265958180125547,0.300390625,-0.804582791432364

,trial,start_time,rt,correct,fact_id,question,answer,flipped,alpha,activation,flip_alpha,flip_activation
0,1,45566.055300179876,1720.8314000163227,True,2,I,mimi,False,0.3,-inf,0.3,9.766260287910034
1,2,54487.090000184246,inf,True,2,mimi,I,True,0.3,-0.6565235812869111,0.3,-0.6565235812869109
2,3,63431.46040011197,1747.5481999572366,True,14,one,moja,False,0.3,-inf,0.3,-inf
3,4,67373.61190002412,339.1372000332922,True,14,moja,one,True,0.3,-0.4115179920712876,0.3,-inf
4,5,72420.04470014945,1357.3050999548284,True,15,have,na,False,0.3,-inf,0.3,-inf
5,6,76125.19500008784,462.0648000854999,False,19,hot,moto,False,0.3,-inf,0.3,-inf
6,7,78250.784000149,3240.2904999908064,True,15,na,have,True,0.3,-0.5289431405784463,0.3,-0.5289431405784463
7,8,83155.77010018751,inf,False,19,moto,hot,True,0.3,-0.5850805527102486,0.3,-inf
8,9,90142.33639999293,3680.132100125775,True,20,word,neno,False,0.3,-inf,0.3,-inf
9,10,96990.79940002412,2352.249100105837,True,22,what,nini,False,0.3,-inf,0.3,-inf
10,11,101623.15720017068,3375.331999966875,False,20,neno,word,True,0.3,-0.7322033659826592,0.3,-0.7322033659826592
11,12,109051.75180011427,1716.721799923107,True,22,nini,what,True,0.3,-0.7469919479988106,0.3,-inf
12,13,113310.85740006527,5667.439700104295,False,2,mimi,I,True,0.349609375,-0.7853221698250148,0.3,-1.2647243205130905
13,14,120694.17770020664,7331.6107999999085,False,14,moja,one,True,0.349609375,-0.7898733127420651,0.3,-1.1928966319981444
14,15,129807.40649998188,1996.998600196093,False,15,na,have,True,0.349609375,-0.7589572561600579,0.3,-1.214947230413875
15,16,133614.2748000566,2565.9928999375547,False,19,moto,hot,True,0.349609375,-0.7440186249501144,0.3,-1.1763453928194814
16,17,138117.2072000336,1494.290899951011,True,26,you,ninyi,False,0.3,-inf,0.3,-inf
17,18,142838.68390019052,2007.9961998853832,True,43,time,wakati,False,0.3,-inf,0.3,-inf
18,19,147986.96200014092,813.5807998478411,True,26,ninyi,you,True,0.3,-0.6868425030567641,0.3,-inf
19,20,150321.39220018868,776.2765998486431,True,43,wakati,time,True,0.3,-0.6037784395939019,0.3,-inf
20,21,153694.4512000773,1948.3294999226928,False,20,neno,word,True,0.349609375,-0.7386858347633332,0.3,-1.24555808244515
21,22,157431.802400155,1324.987699976191,False,2,I,mimi,False,0.39921875,-0.7476129635946556,0.3,-1.4151898397064933
22,23,160154.67289998196,3891.5845002047718,True,14,one,moja,False,0.39921875,-0.7309974629997804,0.3,-0.6769812068954071
23,24,165944.53990017064,1421.5933999512345,True,22,nini,what,True,0.250390625,-0.7653845029665903,0.3,-1.2123505758527329
24,25,169072.08640011962,1276.1260999832302,True,15,have,na,False,0.34921875,-0.7152920408651622,0.3,11.327728604980132
25,26,171919.4016000256,1842.447699978948,True,50,tell,kuwaambia,False,0.3,-inf,0.3,-inf
26,27,177047.96230001375,1330.4620999842882,False,19,hot,moto,False,0.39921875,-0.7366221698469831,0.3,-0.6988007590277174
27,28,180181.02740007453,6531.010299921037,False,50,kuwaambia,tell,True,0.3,-0.633486418877361,0.3,-inf
28,29,188354.9601000268,1660.4000001680106,False,2,mimi,I,True,0.4488281249999999,-0.7106275618144487,0.3,-0.6621345450257586
29,30,192097.95910003595,588.2974001578987,False,14,moja,one,True,0.4488281249999999,-0.7200300077469421,0.32539062499999993,-0.8298141018870249
30,31,199622.83730017953,2635.763499885797,False,20,word,neno,False,0.39921875,-0.7428077768545628,0.3,-1.4087239378285814
31,32,204398.32420018504,1397.8868999984115,True,43,wakati,time,True,0.250390625,-0.7643932368146344,0.3,11.704036113867147
32,33,207510.5377000291,3525.5257000681013,False,26,ninyi,you,True,0.349609375,-0.7856589459606959,0.3,-1.225911739296999
33,34,214423.63140010272,1090.0850999169052,False,2,I,mimi,False,0.4742187499999999,-0.7265958180125547,0.300390625,-0.804582791432364
34,35,216981.63500009105,5031.2934999819845,False,19,moto,hot,True,0.4488281249999999,-0.7785962235179322,0.32539062499999993,-0.8703963230569035

,trial,start_time,rt,correct,fact_id,question,answer,flipped,alpha,activation,flip_alpha,flip_activation
0,1,45566.055300179876,1720.8314000163227,True,2,I,mimi,False,0.3,-inf,0.3,9.766260287910034
1,2,54487.090000184246,inf,True,2,mimi,I,True,0.3,-0.6565235812869111,0.3,-0.6565235812869109
2,3,63431.46040011197,1747.5481999572366,True,14,one,moja,False,0.3,-inf,0.3,-inf
3,4,67373.61190002412,339.1372000332922,True,14,moja,one,True,0.3,-0.4115179920712876,0.3,-0.4115179920712876
4,5,72420.04470014945,1357.3050999548284,True,15,have,na,False,0.3,-inf,0.3,-inf
5,6,76125.19500008784,462.0648000854999,False,19,hot,moto,False,0.3,-inf,0.3,-inf
6,7,78250.784000149,3240.2904999908064,True,15,na,have,True,0.3,-0.5289431405784463,0.3,-0.5289431405784463
7,8,83155.77010018751,inf,False,19,moto,hot,True,0.3,-0.5850805527102486,0.3,-inf
8,9,90142.33639999293,3680.132100125775,True,20,word,neno,False,0.3,-inf,0.3,-inf
9,10,96990.79940002412,2352.249100105837,True,22,what,nini,False,0.3,-inf,0.3,-inf
10,11,101623.15720017068,3375.331999966875,False,20,neno,word,True,0.3,-0.7322033659826592,0.3,-0.7322033659826592
11,12,109051.75180011427,1716.721799923107,True,22,nini,what,True,0.3,-0.7469919479988106,0.3,-inf
12,13,113310.85740006527,5667.439700104295,False,2,mimi,I,True,0.349609375,-0.7853221698250148,0.3,-1.2647243205130905
13,14,120694.17770020664,7331.6107999999085,False,14,moja,one,True,0.349609375,-0.7898733127420651,0.3,-1.2142949262035823
14,15,129807.40649998188,1996.998600196093,False,15,na,have,True,0.349609375,-0.7589572561600579,0.3,-1.214947230413875
15,16,133614.2748000566,2565.9928999375547,False,19,moto,hot,True,0.349609375,-0.7440186249501144,0.3,-1.1763453928194814
16,17,138117.2072000336,1494.290899951011,True,26,you,ninyi,False,0.3,-inf,0.3,-inf
17,18,142838.68390019052,2007.9961998853832,True,43,time,wakati,False,0.3,-inf,0.3,-inf
18,19,147986.96200014092,813.5807998478411,True,26,ninyi,you,True,0.3,-0.6868425030567641,0.3,-inf
19,20,150321.39220018868,776.2765998486431,True,43,wakati,time,True,0.3,-0.6037784395939019,0.3,-inf
20,21,153694.4512000773,1948.3294999226928,False,20,neno,word,True,0.349609375,-0.7386858347633332,0.3,-1.24555808244515
21,22,157431.802400155,1324.987699976191,False,2,I,mimi,False,0.39921875,-0.7476129635946556,0.3,-1.4151898397064933
22,23,160154.67289998196,3891.5845002047718,True,14,one,moja,False,0.39921875,-0.7309974629997804,0.3,-1.3715560260561064
23,24,165944.53990017064,1421.5933999512345,True,22,nini,what,True,0.250390625,-0.7653845029665903,0.3,-1.2123505758527329
24,25,169072.08640011962,1276.1260999832302,True,15,have,na,False,0.34921875,-0.7152920408651622,0.3,11.327728604980132
25,26,171919.4016000256,1842.447699978948,True,50,tell,kuwaambia,False,0.3,-inf,0.3,-inf
26,27,177047.96230001375,1330.4620999842882,False,19,hot,moto,False,0.39921875,-0.7366221698469831,0.3,-0.6988007590277174
27,28,180181.02740007453,6531.010299921037,False,50,kuwaambia,tell,True,0.3,-0.633486418877361,0.3,-inf
28,29,188354.9601000268,1660.4000001680106,False,2,mimi,I,True,0.4488281249999999,-0.7106275618144487,0.3,-0.6621345450257586
29,30,192097.95910003595,588.2974001578987,False,14,moja,one,True,0.4488281249999999,-0.7200300077469421,0.3,-0.6599810534307508
30,31,199622.83730017953,2635.763499885797,False,20,word,neno,False,0.39921875,-0.7428077768545628,0.3,-1.4087239378285814
31,32,204398.32420018504,1397.8868999984115,True,43,wakati,time,True,0.250390625,-0.7643932368146344,0.3,11.704036113867147
32,33,207510.5377000291,3525.5257000681013,False,26,ninyi,you,True,0.349609375,-0.7856589459606959,0.3,-1.225911739296999
33,34,214423.63140010272,1090.0850999169052,False,2,I,mimi,False,0.4742187499999999,-0.7265958180125547,0.300390625,-0.804582791432364
34,35,216981.63500009105,5031.2934999819845,False,19,moto,hot,True,0.4488281249999999,-0.7785962235179322,0.32539062499999993,-0.8703963230569035
35,36,223982.11940005425,2467.316100141033,False,14,one,moja,False,0.4742187499999999,-0.7908108555959882,0.300390625,12.781162088760086

,trial,start_time,rt,correct,fact_id,question,answer,flipped,alpha,activation,flip_alpha,flip_activation
0,1,45566.055300179876,1720.8314000163227,True,2,I,mimi,False,0.3,-inf,0.3,9.766260287910034
1,2,54487.090000184246,inf,True,2,mimi,I,True,0.3,-0.6565235812869111,0.3,-0.6565235812869109
2,3,63431.46040011197,1747.5481999572366,True,14,one,moja,False,0.3,-inf,0.3,-inf
3,4,67373.61190002412,339.1372000332922,True,14,moja,one,True,0.3,-0.4115179920712876,0.3,-0.4115179920712876
4,5,72420.04470014945,1357.3050999548284,True,15,have,na,False,0.3,-inf,0.3,-inf
5,6,76125.19500008784,462.0648000854999,False,19,hot,moto,False,0.3,-inf,0.3,-inf
6,7,78250.784000149,3240.2904999908064,True,15,na,have,True,0.3,-0.5289431405784463,0.3,-0.5289431405784463
7,8,83155.77010018751,inf,False,19,moto,hot,True,0.3,-0.5850805527102486,0.3,-inf
8,9,90142.33639999293,3680.132100125775,True,20,word,neno,False,0.3,-inf,0.3,-inf
9,10,96990.79940002412,2352.249100105837,True,22,what,nini,False,0.3,-inf,0.3,-inf
10,11,101623.15720017068,3375.331999966875,False,20,neno,word,True,0.3,-0.7322033659826592,0.3,-0.7322033659826592
11,12,109051.75180011427,1716.721799923107,True,22,nini,what,True,0.3,-0.7469919479988106,0.3,-inf
12,13,113310.85740006527,5667.439700104295,False,2,mimi,I,True,0.349609375,-0.7853221698250148,0.3,-1.2647243205130905
13,14,120694.17770020664,7331.6107999999085,False,14,moja,one,True,0.349609375,-0.7898733127420651,0.3,-1.2142949262035823
14,15,129807.40649998188,1996.998600196093,False,15,na,have,True,0.349609375,-0.7589572561600579,0.3,-1.214947230413875
15,16,133614.2748000566,2565.9928999375547,False,19,moto,hot,True,0.349609375,-0.7440186249501144,0.3,-1.1763453928194814
16,17,138117.2072000336,1494.290899951011,True,26,you,ninyi,False,0.3,-inf,0.3,-inf
17,18,142838.68390019052,2007.9961998853832,True,43,time,wakati,False,0.3,-inf,0.3,-inf
18,19,147986.96200014092,813.5807998478411,True,26,ninyi,you,True,0.3,-0.6868425030567641,0.3,-inf
19,20,150321.39220018868,776.2765998486431,True,43,wakati,time,True,0.3,-0.6037784395939019,0.3,-inf
20,21,153694.4512000773,1948.3294999226928,False,20,neno,word,True,0.349609375,-0.7386858347633332,0.3,-1.24555808244515
21,22,157431.802400155,1324.987699976191,False,2,I,mimi,False,0.39921875,-0.7476129635946556,0.3,-1.4151898397064933
22,23,160154.67289998196,3891.5845002047718,True,14,one,moja,False,0.39921875,-0.7309974629997804,0.3,-1.3715560260561064
23,24,165944.53990017064,1421.5933999512345,True,22,nini,what,True,0.250390625,-0.7653845029665903,0.3,-1.2123505758527329
24,25,169072.08640011962,1276.1260999832302,True,15,have,na,False,0.34921875,-0.7152920408651622,0.3,11.327728604980132
25,26,171919.4016000256,1842.447699978948,True,50,tell,kuwaambia,False,0.3,-inf,0.3,-inf
26,27,177047.96230001375,1330.4620999842882,False,19,hot,moto,False,0.39921875,-0.7366221698469831,0.3,-0.6988007590277174
27,28,180181.02740007453,6531.010299921037,False,50,kuwaambia,tell,True,0.3,-0.633486418877361,0.3,-inf
28,29,188354.9601000268,1660.4000001680106,False,2,mimi,I,True,0.4488281249999999,-0.7106275618144487,0.3,-0.6621345450257586
29,30,192097.95910003595,588.2974001578987,False,14,moja,one,True,0.4488281249999999,-0.7200300077469421,0.3,-0.6599810534307508
30,31,199622.83730017953,2635.763499885797,False,20,word,neno,False,0.39921875,-0.7428077768545628,0.3,-1.4087239378285814
31,32,204398.32420018504,1397.8868999984115,True,43,wakati,time,True,0.250390625,-0.7643932368146344,0.3,11.704036113867147
32,33,207510.5377000291,3525.5257000681013,False,26,ninyi,you,True,0.349609375,-0.7856589459606959,0.3,-1.225911739296999
33,34,214423.63140010272,1090.0850999169052,False,2,I,mimi,False,0.4742187499999999,-0.7265958180125547,0.300390625,-0.804582791432364
34,35,216981.63500009105,5031.2934999819845,False,19,moto,hot,True,0.4488281249999999,-0.7785962235179322,0.32539062499999993,-0.8703963230569035
35,36,223982.11940005425,2467.316100141033,False,14,one,moja,False,0.4742187499999999,-0.7908108555959882,0.300390625,12.781162088760086
36,37,228376.1364000384,1666.5580000262707,False,50,kuwaambia,tell,True,0.349609375,-0.7232709998576613,0.3,11.786764043574362

,trial,start_time,rt,correct,fact_id,question,answer,flipped,alpha,activation,flip_alpha,flip_activation
0,1,45566.055300179876,1720.8314000163227,True,2,I,mimi,False,0.3,-inf,0.3,9.766260287910034
1,2,54487.090000184246,inf,True,2,mimi,I,True,0.3,-0.6565235812869111,0.3,-0.6565235812869109
2,3,63431.46040011197,1747.5481999572366,True,14,one,moja,False,0.3,-inf,0.3,-inf
3,4,67373.61190002412,339.1372000332922,True,14,moja,one,True,0.3,-0.4115179920712876,0.3,-0.4115179920712876
4,5,72420.04470014945,1357.3050999548284,True,15,have,na,False,0.3,-inf,0.3,-inf
5,6,76125.19500008784,462.0648000854999,False,19,hot,moto,False,0.3,-inf,0.3,-inf
6,7,78250.784000149,3240.2904999908064,True,15,na,have,True,0.3,-0.5289431405784463,0.3,-0.5289431405784463
7,8,83155.77010018751,inf,False,19,moto,hot,True,0.3,-0.5850805527102486,0.3,-inf
8,9,90142.33639999293,3680.132100125775,True,20,word,neno,False,0.3,-inf,0.3,-inf
9,10,96990.79940002412,2352.249100105837,True,22,what,nini,False,0.3,-inf,0.3,-inf
10,11,101623.15720017068,3375.331999966875,False,20,neno,word,True,0.3,-0.7322033659826592,0.3,-inf
11,12,109051.75180011427,1716.721799923107,True,22,nini,what,True,0.3,-0.7469919479988106,0.3,-inf
12,13,113310.85740006527,5667.439700104295,False,2,mimi,I,True,0.349609375,-0.7853221698250148,0.3,-1.2647243205130905
13,14,120694.17770020664,7331.6107999999085,False,14,moja,one,True,0.349609375,-0.7898733127420651,0.3,-1.2142949262035823
14,15,129807.40649998188,1996.998600196093,False,15,na,have,True,0.349609375,-0.7589572561600579,0.3,-1.214947230413875
15,16,133614.2748000566,2565.9928999375547,False,19,moto,hot,True,0.349609375,-0.7440186249501144,0.3,-1.1763453928194814
16,17,138117.2072000336,1494.290899951011,True,26,you,ninyi,False,0.3,-inf,0.3,-inf
17,18,142838.68390019052,2007.9961998853832,True,43,time,wakati,False,0.3,-inf,0.3,-inf
18,19,147986.96200014092,813.5807998478411,True,26,ninyi,you,True,0.3,-0.6868425030567641,0.3,-inf
19,20,150321.39220018868,776.2765998486431,True,43,wakati,time,True,0.3,-0.6037784395939019,0.3,-inf
20,21,153694.4512000773,1948.3294999226928,False,20,neno,word,True,0.349609375,-0.7386858347633332,0.3,-1.1857841454078382
21,22,157431.802400155,1324.987699976191,False,2,I,mimi,False,0.39921875,-0.7476129635946556,0.3,-1.4151898397064933
22,23,160154.67289998196,3891.5845002047718,True,14,one,moja,False,0.39921875,-0.7309974629997804,0.3,-1.3715560260561064
23,24,165944.53990017064,1421.5933999512345,True,22,nini,what,True,0.250390625,-0.7653845029665903,0.3,-1.2123505758527329
24,25,169072.08640011962,1276.1260999832302,True,15,have,na,False,0.34921875,-0.7152920408651622,0.3,11.327728604980132
25,26,171919.4016000256,1842.447699978948,True,50,tell,kuwaambia,False,0.3,-inf,0.3,-inf
26,27,177047.96230001375,1330.4620999842882,False,19,hot,moto,False,0.39921875,-0.7366221698469831,0.3,-0.6988007590277174
27,28,180181.02740007453,6531.010299921037,False,50,kuwaambia,tell,True,0.3,-0.633486418877361,0.3,-inf
28,29,188354.9601000268,1660.4000001680106,False,2,mimi,I,True,0.4488281249999999,-0.7106275618144487,0.3,-0.6621345450257586
29,30,192097.95910003595,588.2974001578987,False,14,moja,one,True,0.4488281249999999,-0.7200300077469421,0.3,-0.6599810534307508
30,31,199622.83730017953,2635.763499885797,False,20,word,neno,False,0.39921875,-0.7428077768545628,0.3,-0.714282837852905
31,32,204398.32420018504,1397.8868999984115,True,43,wakati,time,True,0.250390625,-0.7643932368146344,0.3,11.704036113867147
32,33,207510.5377000291,3525.5257000681013,False,26,ninyi,you,True,0.349609375,-0.7856589459606959,0.3,-1.225911739296999
33,34,214423.63140010272,1090.0850999169052,False,2,I,mimi,False,0.4742187499999999,-0.7265958180125547,0.300390625,-0.804582791432364
34,35,216981.63500009105,5031.2934999819845,False,19,moto,hot,True,0.4488281249999999,-0.7785962235179322,0.32539062499999993,-0.8703963230569035
35,36,223982.11940005425,2467.316100141033,False,14,one,moja,False,0.4742187499999999,-0.7908108555959882,0.300390625,12.781162088760086
36,37,228376.1364000384,1666.5580000262707,False,50,kuwaambia,tell,True,0.349609375,-0.7232709998576613,0.3,11.786764043574362
37,38,231825.0947999768,1672.0386000815781,False,20,neno,word,True,0.4488281249999999,-0.7176812461435309,0.32539062499999993,-0.853382816799301

,trial,start_time,rt,correct,fact_id,question,answer,flipped,alpha,activation,flip_alpha,flip_activation
0,1,45566.055300179876,1720.8314000163227,True,2,I,mimi,False,0.3,-inf,0.3,9.766260287910034
1,2,54487.090000184246,inf,True,2,mimi,I,True,0.3,-0.6565235812869111,0.3,-0.6565235812869109
2,3,63431.46040011197,1747.5481999572366,True,14,one,moja,False,0.3,-inf,0.3,-inf
3,4,67373.61190002412,339.1372000332922,True,14,moja,one,True,0.3,-0.4115179920712876,0.3,-0.4115179920712876
4,5,72420.04470014945,1357.3050999548284,True,15,have,na,False,0.3,-inf,0.3,-inf
5,6,76125.19500008784,462.0648000854999,False,19,hot,moto,False,0.3,-inf,0.3,-inf
6,7,78250.784000149,3240.2904999908064,True,15,na,have,True,0.3,-0.5289431405784463,0.3,-0.5289431405784463
7,8,83155.77010018751,inf,False,19,moto,hot,True,0.3,-0.5850805527102486,0.3,-0.5850805527102486
8,9,90142.33639999293,3680.132100125775,True,20,word,neno,False,0.3,-inf,0.3,-inf
9,10,96990.79940002412,2352.249100105837,True,22,what,nini,False,0.3,-inf,0.3,-inf
10,11,101623.15720017068,3375.331999966875,False,20,neno,word,True,0.3,-0.7322033659826592,0.3,-inf
11,12,109051.75180011427,1716.721799923107,True,22,nini,what,True,0.3,-0.7469919479988106,0.3,-inf
12,13,113310.85740006527,5667.439700104295,False,2,mimi,I,True,0.349609375,-0.7853221698250148,0.3,-1.2647243205130905
13,14,120694.17770020664,7331.6107999999085,False,14,moja,one,True,0.349609375,-0.7898733127420651,0.3,-1.2142949262035823
14,15,129807.40649998188,1996.998600196093,False,15,na,have,True,0.349609375,-0.7589572561600579,0.3,-1.214947230413875
15,16,133614.2748000566,2565.9928999375547,False,19,moto,hot,True,0.349609375,-0.7440186249501144,0.3,-1.2154785039733786
16,17,138117.2072000336,1494.290899951011,True,26,you,ninyi,False,0.3,-inf,0.3,-inf
17,18,142838.68390019052,2007.9961998853832,True,43,time,wakati,False,0.3,-inf,0.3,-inf
18,19,147986.96200014092,813.5807998478411,True,26,ninyi,you,True,0.3,-0.6868425030567641,0.3,-inf
19,20,150321.39220018868,776.2765998486431,True,43,wakati,time,True,0.3,-0.6037784395939019,0.3,-inf
20,21,153694.4512000773,1948.3294999226928,False,20,neno,word,True,0.349609375,-0.7386858347633332,0.3,-1.1857841454078382
21,22,157431.802400155,1324.987699976191,False,2,I,mimi,False,0.39921875,-0.7476129635946556,0.3,-1.4151898397064933
22,23,160154.67289998196,3891.5845002047718,True,14,one,moja,False,0.39921875,-0.7309974629997804,0.3,-1.3715560260561064
23,24,165944.53990017064,1421.5933999512345,True,22,nini,what,True,0.250390625,-0.7653845029665903,0.3,-1.2123505758527329
24,25,169072.08640011962,1276.1260999832302,True,15,have,na,False,0.34921875,-0.7152920408651622,0.3,11.327728604980132
25,26,171919.4016000256,1842.447699978948,True,50,tell,kuwaambia,False,0.3,-inf,0.3,-inf
26,27,177047.96230001375,1330.4620999842882,False,19,hot,moto,False,0.39921875,-0.7366221698469831,0.3,-1.3843066632376417
27,28,180181.02740007453,6531.010299921037,False,50,kuwaambia,tell,True,0.3,-0.633486418877361,0.3,-inf
28,29,188354.9601000268,1660.4000001680106,False,2,mimi,I,True,0.4488281249999999,-0.7106275618144487,0.3,-0.6621345450257586
29,30,192097.95910003595,588.2974001578987,False,14,moja,one,True,0.4488281249999999,-0.7200300077469421,0.3,-0.6599810534307508
30,31,199622.83730017953,2635.763499885797,False,20,word,neno,False,0.39921875,-0.7428077768545628,0.3,-0.714282837852905
31,32,204398.32420018504,1397.8868999984115,True,43,wakati,time,True,0.250390625,-0.7643932368146344,0.3,11.704036113867147
32,33,207510.5377000291,3525.5257000681013,False,26,ninyi,you,True,0.349609375,-0.7856589459606959,0.3,-1.225911739296999
33,34,214423.63140010272,1090.0850999169052,False,2,I,mimi,False,0.4742187499999999,-0.7265958180125547,0.300390625,-0.804582791432364
34,35,216981.63500009105,5031.2934999819845,False,19,moto,hot,True,0.4488281249999999,-0.7785962235179322,0.3,-0.714844117928248
35,36,223982.11940005425,2467.316100141033,False,14,one,moja,False,0.4742187499999999,-0.7908108555959882,0.300390625,12.781162088760086
36,37,228376.1364000384,1666.5580000262707,False,50,kuwaambia,tell,True,0.349609375,-0.7232709998576613,0.3,11.786764043574362
37,38,231825.0947999768,1672.0386000815781,False,20,neno,word,True,0.4488281249999999,-0.7176812461435309,0.32539062499999993,-0.853382816799301
38,39,235348.60050003047,inf,False,19,hot,moto,False,0.4742187499999999,-0.6532409213009859,0.300390625,12.848789317870304

,trial,start_time,rt,correct,fact_id,question,answer,flipped,alpha,activation,flip_alpha,flip_activation
0,1,45566.055300179876,1720.8314000163227,True,2,I,mimi,False,0.3,-inf,0.3,-inf
1,2,54487.090000184246,inf,True,2,mimi,I,True,0.3,-0.6565235812869111,0.3,-inf
2,3,63431.46040011197,1747.5481999572366,True,14,one,moja,False,0.3,-inf,0.3,-inf
3,4,67373.61190002412,339.1372000332922,True,14,moja,one,True,0.3,-0.4115179920712876,0.3,-0.4115179920712876
4,5,72420.04470014945,1357.3050999548284,True,15,have,na,False,0.3,-inf,0.3,-inf
5,6,76125.19500008784,462.0648000854999,False,19,hot,moto,False,0.3,-inf,0.3,-inf
6,7,78250.784000149,3240.2904999908064,True,15,na,have,True,0.3,-0.5289431405784463,0.3,-0.5289431405784463
7,8,83155.77010018751,inf,False,19,moto,hot,True,0.3,-0.5850805527102486,0.3,-0.5850805527102486
8,9,90142.33639999293,3680.132100125775,True,20,word,neno,False,0.3,-inf,0.3,-inf
9,10,96990.79940002412,2352.249100105837,True,22,what,nini,False,0.3,-inf,0.3,-inf
10,11,101623.15720017068,3375.331999966875,False,20,neno,word,True,0.3,-0.7322033659826592,0.3,-inf
11,12,109051.75180011427,1716.721799923107,True,22,nini,what,True,0.3,-0.7469919479988106,0.3,-inf
12,13,113310.85740006527,5667.439700104295,False,2,mimi,I,True,0.349609375,-0.7853221698250148,0.3,-1.222363794214714
13,14,120694.17770020664,7331.6107999999085,False,14,moja,one,True,0.349609375,-0.7898733127420651,0.3,-1.2142949262035823
14,15,129807.40649998188,1996.998600196093,False,15,na,have,True,0.349609375,-0.7589572561600579,0.3,-1.214947230413875
15,16,133614.2748000566,2565.9928999375547,False,19,moto,hot,True,0.349609375,-0.7440186249501144,0.3,-1.2154785039733786
16,17,138117.2072000336,1494.290899951011,True,26,you,ninyi,False,0.3,-inf,0.3,-inf
17,18,142838.68390019052,2007.9961998853832,True,43,time,wakati,False,0.3,-inf,0.3,-inf
18,19,147986.96200014092,813.5807998478411,True,26,ninyi,you,True,0.3,-0.6868425030567641,0.3,-inf
19,20,150321.39220018868,776.2765998486431,True,43,wakati,time,True,0.3,-0.6037784395939019,0.3,-inf
20,21,153694.4512000773,1948.3294999226928,False,20,neno,word,True,0.349609375,-0.7386858347633332,0.3,-1.1857841454078382
21,22,157431.802400155,1324.987699976191,False,2,I,mimi,False,0.39921875,-0.7476129635946556,0.3,-0.7093679772579465
22,23,160154.67289998196,3891.5845002047718,True,14,one,moja,False,0.39921875,-0.7309974629997804,0.3,-1.3715560260561064
23,24,165944.53990017064,1421.5933999512345,True,22,nini,what,True,0.250390625,-0.7653845029665903,0.3,-1.2123505758527329
24,25,169072.08640011962,1276.1260999832302,True,15,have,na,False,0.34921875,-0.7152920408651622,0.3,11.327728604980132
25,26,171919.4016000256,1842.447699978948,True,50,tell,kuwaambia,False,0.3,-inf,0.3,-inf
26,27,177047.96230001375,1330.4620999842882,False,19,hot,moto,False,0.39921875,-0.7366221698469831,0.3,-1.3843066632376417
27,28,180181.02740007453,6531.010299921037,False,50,kuwaambia,tell,True,0.3,-0.633486418877361,0.3,-inf
28,29,188354.9601000268,1660.4000001680106,False,2,mimi,I,True,0.4488281249999999,-0.7106275618144487,0.32539062499999993,-0.8454679497235684
29,30,192097.95910003595,588.2974001578987,False,14,moja,one,True,0.4488281249999999,-0.7200300077469421,0.3,-0.6599810534307508
30,31,199622.83730017953,2635.763499885797,False,20,word,neno,False,0.39921875,-0.7428077768545628,0.3,-0.714282837852905
31,32,204398.32420018504,1397.8868999984115,True,43,wakati,time,True,0.250390625,-0.7643932368146344,0.3,11.704036113867147
32,33,207510.5377000291,3525.5257000681013,False,26,ninyi,you,True,0.349609375,-0.7856589459606959,0.3,-1.225911739296999
33,34,214423.63140010272,1090.0850999169052,False,2,I,mimi,False,0.4742187499999999,-0.7265958180125547,0.32539062499999993,-0.520538634158409
34,35,216981.63500009105,5031.2934999819845,False,19,moto,hot,True,0.4488281249999999,-0.7785962235179322,0.3,-0.714844117928248
35,36,223982.11940005425,2467.316100141033,False,14,one,moja,False,0.4742187499999999,-0.7908108555959882,0.300390625,12.781162088760086
36,37,228376.1364000384,1666.5580000262707,False,50,kuwaambia,tell,True,0.349609375,-0.7232709998576613,0.3,11.786764043574362
37,38,231825.0947999768,1672.0386000815781,False,20,neno,word,True,0.4488281249999999,-0.7176812461435309,0.32539062499999993,-0.853382816799301
38,39,235348.60050003047,inf,False,19,hot,moto,False,0.4742187499999999,-0.6532409213009859,0.300390625,12.848789317870304
39,40,243061.6625000257,inf,True,2,mimi,I,True,0.4746093749999999,-0.7339043706129166,0.3749999999999999,-0.6886528607618371

,trial,start_time,rt,correct,fact_id,question,answer,flipped,alpha,activation,flip_alpha,flip_activation
0,1,45566.055300179876,1720.8314000163227,True,2,I,mimi,False,0.3,-inf,0.3,-inf
1,2,54487.090000184246,inf,True,2,mimi,I,True,0.3,-0.6565235812869111,0.3,-inf
2,3,63431.46040011197,1747.5481999572366,True,14,one,moja,False,0.3,-inf,0.3,-inf
3,4,67373.61190002412,339.1372000332922,True,14,moja,one,True,0.3,-0.4115179920712876,0.3,-inf
4,5,72420.04470014945,1357.3050999548284,True,15,have,na,False,0.3,-inf,0.3,-inf
5,6,76125.19500008784,462.0648000854999,False,19,hot,moto,False,0.3,-inf,0.3,-inf
6,7,78250.784000149,3240.2904999908064,True,15,na,have,True,0.3,-0.5289431405784463,0.3,-0.5289431405784463
7,8,83155.77010018751,inf,False,19,moto,hot,True,0.3,-0.5850805527102486,0.3,-0.5850805527102486
8,9,90142.33639999293,3680.132100125775,True,20,word,neno,False,0.3,-inf,0.3,-inf
9,10,96990.79940002412,2352.249100105837,True,22,what,nini,False,0.3,-inf,0.3,-inf
10,11,101623.15720017068,3375.331999966875,False,20,neno,word,True,0.3,-0.7322033659826592,0.3,-inf
11,12,109051.75180011427,1716.721799923107,True,22,nini,what,True,0.3,-0.7469919479988106,0.3,-inf
12,13,113310.85740006527,5667.439700104295,False,2,mimi,I,True,0.349609375,-0.7853221698250148,0.3,-1.222363794214714
13,14,120694.17770020664,7331.6107999999085,False,14,moja,one,True,0.349609375,-0.7898733127420651,0.3,-1.1928966319981444
14,15,129807.40649998188,1996.998600196093,False,15,na,have,True,0.349609375,-0.7589572561600579,0.3,-1.214947230413875
15,16,133614.2748000566,2565.9928999375547,False,19,moto,hot,True,0.349609375,-0.7440186249501144,0.3,-1.2154785039733786
16,17,138117.2072000336,1494.290899951011,True,26,you,ninyi,False,0.3,-inf,0.3,-inf
17,18,142838.68390019052,2007.9961998853832,True,43,time,wakati,False,0.3,-inf,0.3,-inf
18,19,147986.96200014092,813.5807998478411,True,26,ninyi,you,True,0.3,-0.6868425030567641,0.3,-inf
19,20,150321.39220018868,776.2765998486431,True,43,wakati,time,True,0.3,-0.6037784395939019,0.3,-inf
20,21,153694.4512000773,1948.3294999226928,False,20,neno,word,True,0.349609375,-0.7386858347633332,0.3,-1.1857841454078382
21,22,157431.802400155,1324.987699976191,False,2,I,mimi,False,0.39921875,-0.7476129635946556,0.3,-0.7093679772579465
22,23,160154.67289998196,3891.5845002047718,True,14,one,moja,False,0.39921875,-0.7309974629997804,0.3,-0.6769812068954071
23,24,165944.53990017064,1421.5933999512345,True,22,nini,what,True,0.250390625,-0.7653845029665903,0.3,-1.2123505758527329
24,25,169072.08640011962,1276.1260999832302,True,15,have,na,False,0.34921875,-0.7152920408651622,0.3,11.327728604980132
25,26,171919.4016000256,1842.447699978948,True,50,tell,kuwaambia,False,0.3,-inf,0.3,-inf
26,27,177047.96230001375,1330.4620999842882,False,19,hot,moto,False,0.39921875,-0.7366221698469831,0.3,-1.3843066632376417
27,28,180181.02740007453,6531.010299921037,False,50,kuwaambia,tell,True,0.3,-0.633486418877361,0.3,-inf
28,29,188354.9601000268,1660.4000001680106,False,2,mimi,I,True,0.4488281249999999,-0.7106275618144487,0.32539062499999993,-0.8454679497235684
29,30,192097.95910003595,588.2974001578987,False,14,moja,one,True,0.4488281249999999,-0.7200300077469421,0.32539062499999993,-0.8298141018870249
30,31,199622.83730017953,2635.763499885797,False,20,word,neno,False,0.39921875,-0.7428077768545628,0.3,-0.714282837852905
31,32,204398.32420018504,1397.8868999984115,True,43,wakati,time,True,0.250390625,-0.7643932368146344,0.3,11.704036113867147
32,33,207510.5377000291,3525.5257000681013,False,26,ninyi,you,True,0.349609375,-0.7856589459606959,0.3,-1.225911739296999
33,34,214423.63140010272,1090.0850999169052,False,2,I,mimi,False,0.4742187499999999,-0.7265958180125547,0.32539062499999993,-0.520538634158409
34,35,216981.63500009105,5031.2934999819845,False,19,moto,hot,True,0.4488281249999999,-0.7785962235179322,0.3,-0.714844117928248
35,36,223982.11940005425,2467.316100141033,False,14,one,moja,False,0.4742187499999999,-0.7908108555959882,0.32539062499999993,-0.5605067160315346
36,37,228376.1364000384,1666.5580000262707,False,50,kuwaambia,tell,True,0.349609375,-0.7232709998576613,0.3,11.786764043574362
37,38,231825.0947999768,1672.0386000815781,False,20,neno,word,True,0.4488281249999999,-0.7176812461435309,0.32539062499999993,-0.853382816799301
38,39,235348.60050003047,inf,False,19,hot,moto,False,0.4742187499999999,-0.6532409213009859,0.300390625,12.848789317870304
39,40,243061.6625000257,inf,True,2,mimi,I,True,0.4746093749999999,-0.7339043706129166,0.3749999999999999,-0.6886528607618371
40,41,255314.9207001552,2588.6943999212235,False,14,moja,one,True,0.4746093749999999,-0.7829442232535324,0.3749999999999999,-0.7196092189586737

,trial,start_time,rt,correct,fact_id,question,answer,flipped,alpha,activation,flip_alpha,flip_activation
0,1,45566.055300179876,1720.8314000163227,True,2,I,mimi,False,0.3,-inf,0.3,-inf
1,2,54487.090000184246,inf,True,2,mimi,I,True,0.3,-0.6565235812869111,0.3,-inf
2,3,63431.46040011197,1747.5481999572366,True,14,one,moja,False,0.3,-inf,0.3,-inf
3,4,67373.61190002412,339.1372000332922,True,14,moja,one,True,0.3,-0.4115179920712876,0.3,-inf
4,5,72420.04470014945,1357.3050999548284,True,15,have,na,False,0.3,-inf,0.3,-inf
5,6,76125.19500008784,462.0648000854999,False,19,hot,moto,False,0.3,-inf,0.3,-inf
6,7,78250.784000149,3240.2904999908064,True,15,na,have,True,0.3,-0.5289431405784463,0.3,-0.5289431405784463
7,8,83155.77010018751,inf,False,19,moto,hot,True,0.3,-0.5850805527102486,0.3,-0.5850805527102486
8,9,90142.33639999293,3680.132100125775,True,20,word,neno,False,0.3,-inf,0.3,-inf
9,10,96990.79940002412,2352.249100105837,True,22,what,nini,False,0.3,-inf,0.3,-inf
10,11,101623.15720017068,3375.331999966875,False,20,neno,word,True,0.3,-0.7322033659826592,0.3,-0.7322033659826592
11,12,109051.75180011427,1716.721799923107,True,22,nini,what,True,0.3,-0.7469919479988106,0.3,-inf
12,13,113310.85740006527,5667.439700104295,False,2,mimi,I,True,0.349609375,-0.7853221698250148,0.3,-1.222363794214714
13,14,120694.17770020664,7331.6107999999085,False,14,moja,one,True,0.349609375,-0.7898733127420651,0.3,-1.1928966319981444
14,15,129807.40649998188,1996.998600196093,False,15,na,have,True,0.349609375,-0.7589572561600579,0.3,-1.214947230413875
15,16,133614.2748000566,2565.9928999375547,False,19,moto,hot,True,0.349609375,-0.7440186249501144,0.3,-1.2154785039733786
16,17,138117.2072000336,1494.290899951011,True,26,you,ninyi,False,0.3,-inf,0.3,-inf
17,18,142838.68390019052,2007.9961998853832,True,43,time,wakati,False,0.3,-inf,0.3,-inf
18,19,147986.96200014092,813.5807998478411,True,26,ninyi,you,True,0.3,-0.6868425030567641,0.3,-inf
19,20,150321.39220018868,776.2765998486431,True,43,wakati,time,True,0.3,-0.6037784395939019,0.3,-inf
20,21,153694.4512000773,1948.3294999226928,False,20,neno,word,True,0.349609375,-0.7386858347633332,0.3,-1.24555808244515
21,22,157431.802400155,1324.987699976191,False,2,I,mimi,False,0.39921875,-0.7476129635946556,0.3,-0.7093679772579465
22,23,160154.67289998196,3891.5845002047718,True,14,one,moja,False,0.39921875,-0.7309974629997804,0.3,-0.6769812068954071
23,24,165944.53990017064,1421.5933999512345,True,22,nini,what,True,0.250390625,-0.7653845029665903,0.3,-1.2123505758527329
24,25,169072.08640011962,1276.1260999832302,True,15,have,na,False,0.34921875,-0.7152920408651622,0.3,11.327728604980132
25,26,171919.4016000256,1842.447699978948,True,50,tell,kuwaambia,False,0.3,-inf,0.3,-inf
26,27,177047.96230001375,1330.4620999842882,False,19,hot,moto,False,0.39921875,-0.7366221698469831,0.3,-1.3843066632376417
27,28,180181.02740007453,6531.010299921037,False,50,kuwaambia,tell,True,0.3,-0.633486418877361,0.3,-inf
28,29,188354.9601000268,1660.4000001680106,False,2,mimi,I,True,0.4488281249999999,-0.7106275618144487,0.32539062499999993,-0.8454679497235684
29,30,192097.95910003595,588.2974001578987,False,14,moja,one,True,0.4488281249999999,-0.7200300077469421,0.32539062499999993,-0.8298141018870249
30,31,199622.83730017953,2635.763499885797,False,20,word,neno,False,0.39921875,-0.7428077768545628,0.3,-1.4087239378285814
31,32,204398.32420018504,1397.8868999984115,True,43,wakati,time,True,0.250390625,-0.7643932368146344,0.3,11.704036113867147
32,33,207510.5377000291,3525.5257000681013,False,26,ninyi,you,True,0.349609375,-0.7856589459606959,0.3,-1.225911739296999
33,34,214423.63140010272,1090.0850999169052,False,2,I,mimi,False,0.4742187499999999,-0.7265958180125547,0.32539062499999993,-0.520538634158409
34,35,216981.63500009105,5031.2934999819845,False,19,moto,hot,True,0.4488281249999999,-0.7785962235179322,0.3,-0.714844117928248
35,36,223982.11940005425,2467.316100141033,False,14,one,moja,False,0.4742187499999999,-0.7908108555959882,0.32539062499999993,-0.5605067160315346
36,37,228376.1364000384,1666.5580000262707,False,50,kuwaambia,tell,True,0.349609375,-0.7232709998576613,0.3,11.786764043574362
37,38,231825.0947999768,1672.0386000815781,False,20,neno,word,True,0.4488281249999999,-0.7176812461435309,0.3,-0.670062502518671
38,39,235348.60050003047,inf,False,19,hot,moto,False,0.4742187499999999,-0.6532409213009859,0.300390625,12.848789317870304
39,40,243061.6625000257,inf,True,2,mimi,I,True,0.4746093749999999,-0.7339043706129166,0.3749999999999999,-0.6886528607618371
40,41,255314.9207001552,2588.6943999212235,False,14,moja,one,True,0.4746093749999999,-0.7829442232535324,0.3749999999999999,-0.7196092189586737
41,42,260129.32300008836,1904.2106000706556,False,20,word,neno,False,0.4742187499999999,-0.7509389547413484,0.300390625,12.802787389828131

,trial,start_time,rt,correct,fact_id,question,answer,flipped,alpha,activation,flip_alpha,flip_activation
0,1,45566.055300179876,1720.8314000163227,True,2,I,mimi,False,0.3,-inf,0.3,-inf
1,2,54487.090000184246,inf,True,2,mimi,I,True,0.3,-0.6565235812869111,0.3,-inf
2,3,63431.46040011197,1747.5481999572366,True,14,one,moja,False,0.3,-inf,0.3,-inf
3,4,67373.61190002412,339.1372000332922,True,14,moja,one,True,0.3,-0.4115179920712876,0.3,-inf
4,5,72420.04470014945,1357.3050999548284,True,15,have,na,False,0.3,-inf,0.3,-inf
5,6,76125.19500008784,462.0648000854999,False,19,hot,moto,False,0.3,-inf,0.3,-inf
6,7,78250.784000149,3240.2904999908064,True,15,na,have,True,0.3,-0.5289431405784463,0.3,-0.5289431405784463
7,8,83155.77010018751,inf,False,19,moto,hot,True,0.3,-0.5850805527102486,0.3,-0.5850805527102486
8,9,90142.33639999293,3680.132100125775,True,20,word,neno,False,0.3,-inf,0.3,-inf
